accelX (mg),accelY (mg),accelZ (mg),gyroX (mdps),gyroY (mdps),gyroZ (mdps),pressure (mbar x100),temp (x100),time HHMMSSms ,lat (deg),lat (min),long (deg),long (min),alt (m x10),,
0,0,0,0,0,0,93287,940,22325880,0,0,0,0,0,,
,,,,,,,,,,,,,,,
-63,966,5,-218,1111,630,93298,939,22325900,0,0,0,0,0,,
,,,,,,,,,,,,,,,
-62,968,5,-236,1190,665,93295,940,22325920,0,0,0,0,0,,
,,,,,,,,,,,,,,,
-63,969,4,-437,1128,551,93286,941,22325960,0,0,0,0,0,,
,,,,,,,,,,,,,,,
-67,967,8,-350,1251,761,93287,942,22325980,0,0,0,0,0,,
,,,,,,,,,,,,,,,
-60,966,3,-332,1190,761,93295,942,22330000,0,0,0,0,0,,
,,,,,,,,,,,,,,,
-64,971,8,-367,1198,691,93279,942,22330021,53,624374,-111,-4223849,7067,,
,,,,,,,,,,,,,,,
-64,966,3,-323,1225,647,93290,943,22330060,53,624347,-111,-4223932,7060,,
,,,,,,,,,,,,,,,
-62,968,7,-332,1260,778,93284,944,22330080,53,624358,-111,-4223931,7057,,
,,,,,,,,,,,,,,,
-63,965,5,-402,1207,656,93295,943,22330100,53,624361,-111,-4223943,7049,,
,,,,,,,,,,,,,,,
-60,969,3,-323,1242,735,93282,945,22330120,53,624367,-111,-4223938,7044,,
,,,,,,,,,,,,,,,
-62,968,5,-367,1198,673,93295,946,22330160,53,624380,-111,-4223942,7041,,
,,,,,,,,,,,,,,,
-64,969,5,-315,1181,665,93291,946,22330180,53,624380,-111,-4223943,7041,,
,,,,,,,,,,,,,,,
-60,969,6,-507,1102,726,93293,946,22330200,53,624384,-111,-4223947,7041,,
,,,,,,,,,,,,,,,
-60,966,4,-350,1190,708,93290,947,22330220,53,624384,-111,-4223946,7041,,
,,,,,,,,,,,,,,,
-62,966,8,-455,1207,612,93304,948,22330260,53,624380,-111,-4223944,7041,,
,,,,,,,,,,,,,,,
-62,969,5,-358,1181,682,93280,948,22330280,53,624380,-111,-4223947,7040,,
,,,,,,,,,,,,,,,
-65,967,7,-350,1303,603,93292,948,22330300,53,624379,-111,-4223944,7040,,
,,,,,,,,,,,,,,,
-64,969,2,-437,1286,700,93290,950,22330320,53,624379,-111,-4223948,7040,,
,,,,,,,,,,,,,,,
-58,964,7,-306,1260,630,93292,951,22330360,53,624380,-111,-4223949,7040,,
,,,,,,,,,,,,,,,
-64,966,5,-411,1198,612,93294,952,22330380,53,624383,-111,-4223949,7040,,
,,,,,,,,,,,,,,,
-63,967,5,-306,980,630,93290,952,22330400,53,624383,-111,-4223951,7041,,
,,,,,,,,,,,,,,,
-62,965,6,-437,1286,673,93297,953,22330420,53,624383,-111,-4223951,7041,,
,,,,,,,,,,,,,,,
-60,967,4,-411,1303,647,93287,953,22330460,53,624384,-111,-4223954,7041,,
,,,,,,,,,,,,,,,
-63,971,8,-280,1155,673,93288,955,22330480,53,624381,-111,-4223955,7041,,
,,,,,,,,,,,,,,,
-65,966,0,-455,1321,638,93282,954,22330500,53,624381,-111,-4223955,7041,,
,,,,,,,,,,,,,,,
-62,966,10,-472,1268,778,93293,955,22330520,53,624380,-111,-4223955,7040,,
,,,,,,,,,,,,,,,
-59,969,6,-516,1373,735,93295,956,22330560,53,624379,-111,-4223961,7040,,
,,,,,,,,,,,,,,,
-63,966,7,-358,1102,603,93280,957,22330580,53,624377,-111,-4223964,7040,,
,,,,,,,,,,,,,,,
-60,968,4,-463,1032,770,93283,956,22330600,53,624377,-111,-4223969,7040,,
,,,,,,,,,,,,,,,
-63,967,4,-218,1190,638,93292,957,22330620,53,624379,-111,-4223970,7040,,
,,,,,,,,,,,,,,,
-67,969,5,-411,1303,700,93294,958,22330660,53,624380,-111,-4223975,7040,,
,,,,,,,,,,,,,,,
-59,967,5,-332,1225,700,93273,958,22330680,53,624380,-111,-4223977,7040,,
,,,,,,,,,,,,,,,
-60,971,4,-358,1330,603,93304,959,22330700,53,624380,-111,-4223977,7041,,
,,,,,,,,,,,,,,,
-61,967,4,-341,1268,708,93305,959,22330720,53,624380,-111,-4223978,7041,,
,,,,,,,,,,,,,,,
-62,967,9,-481,1277,752,93290,960,22330760,53,624380,-111,-4223979,7041,,
,,,,,,,,,,,,,,,
-62,969,5,-253,1233,665,93288,959,22330780,53,624380,-111,-4223983,7041,,
,,,,,,,,,,,,,,,
-60,968,6,-428,997,647,93295,960,22330800,53,624380,-111,-4223985,7041,,
,,,,,,,,,,,,,,,
-61,967,5,-376,997,665,93297,961,22330820,53,624381,-111,-4223986,7041,,
,,,,,,,,,,,,,,,
-63,970,5,-210,813,568,93299,963,22330860,53,624381,-111,-4223987,7040,,
,,,,,,,,,,,,,,,
-62,965,3,-455,770,735,93289,964,22330880,53,624380,-111,-4223987,7040,,
,,,,,,,,,,,,,,,
-62,964,8,-323,1015,665,93293,964,22330900,53,624380,-111,-4223989,7040,,
,,,,,,,,,,,,,,,
-44,977,13,-350,1750,638,93294,964,22330920,53,624379,-111,-4223987,7040,,
,,,,,,,,,,,,,,,
-56,973,3,-192,1330,770,93301,966,22330960,53,624377,-111,-4223986,7040,,
,,,,,,,,,,,,,,,
-65,953,11,-315,1426,673,93292,966,22330980,53,624377,-111,-4223987,7040,,
,,,,,,,,,,,,,,,
-65,977,4,-402,1303,586,93288,966,22331000,53,624376,-111,-4223989,7040,,
,,,,,,,,,,,,,,,
-57,965,4,-420,1076,726,93304,967,22331020,53,624373,-111,-4223987,7041,,
,,,,,,,,,,,,,,,
-61,961,-2,-271,1426,665,93283,967,22331060,53,624373,-111,-4223987,7041,,
,,,,,,,,,,,,,,,
-70,967,14,-376,1356,700,93293,968,22331080,53,624373,-111,-4223989,7041,,
,,,,,,,,,,,,,,,
-59,972,4,-437,1365,560,93293,968,22331100,53,624372,-111,-4223991,7041,,
,,,,,,,,,,,,,,,
-60,963,3,-297,1085,577,93299,969,22331120,53,624369,-111,-4223989,7041,,
,,,,,,,,,,,,,,,
-57,968,3,-568,1190,691,93296,970,22331160,53,624369,-111,-4223989,7041,,
,,,,,,,,,,,,,,,
-62,966,4,-148,1032,708,93310,970,22331180,53,624370,-111,-4223990,7040,,
,,,,,,,,,,,,,,,
-75,961,3,-463,1032,577,93299,971,22331200,53,624369,-111,-4223991,7040,,
,,,,,,,,,,,,,,,
-49,975,5,-411,1146,551,93303,971,22331220,53,624369,-111,-4223992,7040,,
,,,,,,,,,,,,,,,
-53,971,4,-472,1662,752,93297,972,22331260,53,624367,-111,-4223991,7040,,
,,,,,,,,,,,,,,,
-81,958,15,-358,1461,787,93293,972,22331280,53,624367,-111,-4223991,7040,,
,,,,,,,,,,,,,,,
-63,977,8,-516,1225,568,93304,973,22331300,53,624366,-111,-4223991,7040,,
,,,,,,,,,,,,,,,
-65,959,3,-323,1137,586,93283,973,22331320,53,624366,-111,-4223992,7040,,
,,,,,,,,,,,,,,,
-52,969,3,-411,778,813,93293,974,22331360,53,624365,-111,-4223993,7040,,
,,,,,,,,,,,,,,,
-69,956,8,-201,1067,498,93297,974,22331380,53,624363,-111,-4223994,7040,,
,,,,,,,,,,,,,,,
-74,978,51,-551,980,901,93294,974,22331400,53,624362,-111,-4223997,7041,,
,,,,,,,,,,,,,,,
-68,963,10,-157,1172,708,93301,977,22331420,53,624363,-111,-4223997,7041,,
,,,,,,,,,,,,,,,
-67,965,3,-498,1251,595,93285,977,22331460,53,624362,-111,-4223999,7041,,
,,,,,,,,,,,,,,,
-60,961,6,-428,1102,796,93293,977,22331480,53,624363,-111,-4223999,7041,,
,,,,,,,,,,,,,,,
-65,973,5,-218,1513,586,93293,977,22331500,53,624362,-111,-4223999,7041,,
,,,,,,,,,,,,,,,
-72,964,10,-595,892,708,93288,978,22331520,53,624362,-111,-4223998,7041,,
,,,,,,,,,,,,,,,
-57,956,4,-183,1216,770,93306,979,22331560,53,624362,-111,-4223998,7042,,
,,,,,,,,,,,,,,,
-48,987,1,-612,1225,446,93294,979,22331580,53,624361,-111,-4223997,7042,,
,,,,,,,,,,,,,,,
-68,972,12,-210,945,813,93282,980,22331600,53,624359,-111,-4223998,7042,,
,,,,,,,,,,,,,,,
-54,958,8,-481,927,621,93289,981,22331620,53,624359,-111,-4223999,7042,,
,,,,,,,,,,,,,,,
-51,1008,66,-420,857,525,93289,981,22331660,53,624359,-111,-4223999,7042,,
,,,,,,,,,,,,,,,
-27,933,-1,-332,1190,796,93290,981,22331680,53,624359,-111,-4224000,7042,,
,,,,,,,,,,,,,,,
-62,991,7,-236,1470,665,93287,982,22331700,53,624359,-111,-4224003,7042,,
,,,,,,,,,,,,,,,
-68,980,13,-586,980,708,93287,982,22331720,53,624358,-111,-4224003,7042,,
,,,,,,,,,,,,,,,
-54,939,3,-227,1653,708,93281,983,22331760,53,624356,-111,-4224005,7042,,
,,,,,,,,,,,,,,,
-59,983,12,-437,1233,673,93290,983,22331780,53,624356,-111,-4224004,7042,,
,,,,,,,,,,,,,,,
-61,972,0,-376,997,682,93296,984,22331800,53,624356,-111,-4224005,7042,,
,,,,,,,,,,,,,,,
-63,952,8,-140,1505,603,93286,985,22331820,53,624356,-111,-4224006,7043,,
,,,,,,,,,,,,,,,
-61,977,3,-507,1085,735,93296,984,22331860,53,624355,-111,-4224008,7043,,
,,,,,,,,,,,,,,,
-60,975,8,-175,1172,691,93306,985,22331880,53,624355,-111,-4224010,7043,,
,,,,,,,,,,,,,,,
-66,952,5,-455,1155,603,93279,986,22331900,53,624355,-111,-4224010,7043,,
,,,,,,,,,,,,,,,
-64,973,3,-131,1417,621,93292,986,22331920,53,624355,-111,-4224011,7043,,
,,,,,,,,,,,,,,,
-60,975,8,-481,918,665,93276,986,22331960,53,624355,-111,-4224012,7044,,
,,,,,,,,,,,,,,,
-64,958,1,-245,1242,577,93297,986,22331980,53,624354,-111,-4224013,7044,,
,,,,,,,,,,,,,,,
-61,970,9,-463,1225,656,93303,987,22332000,53,624354,-111,-4224013,7044,,
,,,,,,,,,,,,,,,
-57,974,0,-315,1163,630,93279,988,22332020,53,624352,-111,-4224013,7044,,
,,,,,,,,,,,,,,,
-62,964,10,-315,1137,717,93293,989,22332060,53,624351,-111,-4224015,7044,,
,,,,,,,,,,,,,,,
-62,966,1,-420,1093,647,93293,991,22332080,53,624351,-111,-4224015,7044,,
,,,,,,,,,,,,,,,
-61,975,13,-227,1312,603,93286,990,22332100,53,624349,-111,-4224018,7044,,
,,,,,,,,,,,,,,,
-62,963,3,-463,936,638,93302,992,22332120,53,624347,-111,-4224020,7045,,
,,,,,,,,,,,,,,,
-62,964,9,-271,1242,603,93285,992,22332160,53,624344,-111,-4224019,7045,,
,,,,,,,,,,,,,,,
-63,976,4,-525,1216,533,93293,991,22332180,53,624344,-111,-4224019,7045,,
,,,,,,,,,,,,,,,
-59,967,4,-175,1146,726,93290,992,22332200,53,624343,-111,-4224016,7045,,
,,,,,,,,,,,,,,,
-62,961,10,-446,1120,647,93292,993,22332220,53,624340,-111,-4224019,7045,,
,,,,,,,,,,,,,,,
-63,970,2,-288,1251,656,93301,993,22332260,53,624337,-111,-4224019,7045,,
,,,,,,,,,,,,,,,
-60,965,10,-402,988,656,93294,994,22332280,53,624337,-111,-4224020,7045,,
,,,,,,,,,,,,,,,
-61,963,2,-262,1251,726,93309,995,22332300,53,624337,-111,-4224020,7045,,
,,,,,,,,,,,,,,,
-63,975,8,-350,1120,621,93284,995,22332320,53,624336,-111,-4224021,7045,,
,,,,,,,,,,,,,,,
-57,969,2,-411,1190,726,93294,996,22332360,53,624334,-111,-4224023,7046,,
,,,,,,,,,,,,,,,
-62,966,9,-175,1225,612,93290,996,22332380,53,624334,-111,-4224025,7046,,
,,,,,,,,,,,,,,,
-60,969,2,-463,1120,612,93291,996,22332400,53,624334,-111,-4224026,7046,,
,,,,,,,,,,,,,,,
-64,966,5,-131,1330,673,93297,997,22332420,53,624333,-111,-4224027,7046,,
,,,,,,,,,,,,,,,
-62,968,7,-367,1172,542,93293,997,22332460,53,624333,-111,-4224026,7045,,
,,,,,,,,,,,,,,,
-57,970,5,-262,1155,665,93290,998,22332480,53,624333,-111,-4224027,7045,,
,,,,,,,,,,,,,,,
-62,969,8,-428,1172,682,93290,998,22332500,53,624333,-111,-4224027,7045,,
,,,,,,,,,,,,,,,
-62,964,3,-358,1321,638,93297,999,22332520,53,624333,-111,-4224027,7045,,
,,,,,,,,,,,,,,,
-59,969,13,-393,1181,630,93293,999,22332560,53,624333,-111,-4224027,7045,,
,,,,,,,,,,,,,,,
-60,970,2,-367,1093,673,93294,1000,22332580,53,624333,-111,-4224028,7046,,
,,,,,,,,,,,,,,,
-62,966,6,-236,1137,691,93284,1001,22332600,53,624331,-111,-4224029,7046,,
,,,,,,,,,,,,,,,
-58,965,5,-586,1172,577,93290,1000,22332620,53,624331,-111,-4224030,7046,,
,,,,,,,,,,,,,,,
-60,969,6,-288,1190,691,93290,1002,22332660,53,624330,-111,-4224030,7046,,
,,,,,,,,,,,,,,,
-62,964,5,-446,1146,621,93294,1002,22332680,53,624331,-111,-4224030,7046,,
,,,,,,,,,,,,,,,
-58,965,5,-105,1356,691,93301,1004,22332700,53,624330,-111,-4224032,7046,,
,,,,,,,,,,,,,,,
-60,972,7,-446,1067,542,93293,1004,22332720,53,624330,-111,-4224032,7046,,
,,,,,,,,,,,,,,,
-60,968,2,-341,1190,673,93299,1005,22332760,53,624329,-111,-4224033,7046,,
,,,,,,,,,,,,,,,
-61,966,9,-376,1216,586,93307,1005,22332780,53,624329,-111,-4224033,7046,,
,,,,,,,,,,,,,,,
-63,968,3,-245,1181,621,93291,1005,22332800,53,624327,-111,-4224035,7046,,
,,,,,,,,,,,,,,,
-63,967,8,-271,1216,708,93289,1006,22332820,53,624326,-111,-4224036,7046,,
,,,,,,,,,,,,,,,
-63,966,2,-428,1251,603,93293,1006,22332860,53,624326,-111,-4224037,7046,,
,,,,,,,,,,,,,,,
-64,968,9,-166,1330,682,93285,1006,22332880,53,624326,-111,-4224037,7046,,
,,,,,,,,,,,,,,,
-59,969,2,-393,1225,691,93288,1008,22332900,53,624326,-111,-4224037,7046,,
,,,,,,,,,,,,,,,
-63,967,7,-236,1260,700,93300,1007,22332920,53,624326,-111,-4224037,7046,,
,,,,,,,,,,,,,,,
-63,966,4,-463,1225,682,93290,1009,22332960,53,624326,-111,-4224037,7046,,
,,,,,,,,,,,,,,,
-61,971,4,-157,1347,647,93298,1009,22332980,53,624326,-111,-4224037,7046,,
,,,,,,,,,,,,,,,
-65,967,8,-393,1190,603,93290,1009,22333000,53,624326,-111,-4224037,7046,,
,,,,,,,,,,,,,,,
-61,969,4,-122,1286,752,93287,1009,22333020,53,624326,-111,-4224039,7046,,
,,,,,,,,,,,,,,,
-60,970,8,-288,1216,630,93302,1010,22333060,53,624325,-111,-4224041,7046,,
,,,,,,,,,,,,,,,
-60,966,2,-323,1356,673,93285,1010,22333080,53,624325,-111,-4224041,7046,,
,,,,,,,,,,,,,,,
-62,967,7,-245,1365,743,93280,1010,22333100,53,624323,-111,-4224041,7047,,
,,,,,,,,,,,,,,,
-60,969,2,-323,1198,656,93289,1012,22333120,53,624323,-111,-4224042,7047,,
,,,,,,,,,,,,,,,
-63,967,6,-332,1303,831,93302,1012,22333160,53,624323,-111,-4224042,7047,,
,,,,,,,,,,,,,,,
-60,968,5,-358,1172,603,93302,1012,22333180,53,624323,-111,-4224044,7047,,
,,,,,,,,,,,,,,,
-63,966,6,-131,1251,708,93287,1013,22333200,53,624322,-111,-4224044,7047,,
,,,,,,,,,,,,,,,
-59,966,5,-367,1286,682,93301,1014,22333220,53,624319,-111,-4224047,7047,,
,,,,,,,,,,,,,,,
-60,966,4,-323,1295,665,93293,1014,22333260,53,624319,-111,-4224049,7047,,
,,,,,,,,,,,,,,,
-60,969,7,-463,1190,595,93299,1015,22333280,53,624319,-111,-4224049,7047,,
,,,,,,,,,,,,,,,
-58,969,3,-376,1286,700,93292,1016,22333300,53,624319,-111,-4224049,7047,,
,,,,,,,,,,,,,,,
-62,969,10,-350,1146,691,93305,1016,22333320,53,624319,-111,-4224049,7048,,
,,,,,,,,,,,,,,,
-65,969,2,-446,1155,647,93291,1018,22333360,53,624318,-111,-4224050,7048,,
,,,,,,,,,,,,,,,
-62,968,6,-350,1286,691,93287,1018,22333380,53,624318,-111,-4224050,7048,,
,,,,,,,,,,,,,,,
-60,971,4,-350,1111,665,93295,1018,22333400,53,624315,-111,-4224052,7048,,
,,,,,,,,,,,,,,,
-65,968,8,-166,1295,595,93305,1019,22333420,53,624313,-111,-4224054,7048,,
,,,,,,,,,,,,,,,
-63,969,4,-568,1251,586,93295,1020,22333460,53,624312,-111,-4224055,7048,,
,,,,,,,,,,,,,,,
-60,966,5,-253,1216,595,93299,1020,22333480,53,624312,-111,-4224054,7049,,
,,,,,,,,,,,,,,,
-60,966,5,-551,1216,752,93291,1020,22333500,53,624312,-111,-4224054,7049,,
,,,,,,,,,,,,,,,
-62,969,4,-192,1286,595,93297,1021,22333520,53,624312,-111,-4224055,7049,,
,,,,,,,,,,,,,,,
-62,964,7,-385,1093,656,93297,1021,22333560,53,624311,-111,-4224056,7049,,
,,,,,,,,,,,,,,,
-57,966,3,-288,1146,682,93295,1022,22333580,53,624308,-111,-4224058,7049,,
,,,,,,,,,,,,,,,
-61,971,6,-341,1216,560,93295,1022,22333600,53,624308,-111,-4224058,7049,,
,,,,,,,,,,,,,,,
-60,969,3,-350,1321,647,93287,1022,22333620,53,624308,-111,-4224058,7049,,
,,,,,,,,,,,,,,,
-61,970,8,-280,1330,638,93293,1023,22333660,53,624307,-111,-4224061,7049,,
,,,,,,,,,,,,,,,
-61,967,2,-376,1190,630,93299,1024,22333680,53,624305,-111,-4224061,7049,,
,,,,,,,,,,,,,,,
-63,969,5,-201,1330,656,93304,1024,22333700,53,624305,-111,-4224063,7049,,
,,,,,,,,,,,,,,,
-61,970,5,-437,1242,656,93292,1024,22333720,53,624304,-111,-4224063,7049,,
,,,,,,,,,,,,,,,
-63,966,6,-402,1216,647,93284,1024,22333760,53,624302,-111,-4224064,7049,,
,,,,,,,,,,,,,,,
-61,966,7,-332,1163,708,93291,1026,22333780,53,624302,-111,-4224065,7049,,
,,,,,,,,,,,,,,,
-60,964,4,-253,1303,577,93300,1026,22333800,53,624301,-111,-4224066,7049,,
,,,,,,,,,,,,,,,
-60,968,9,-463,1260,603,93301,1026,22333820,53,624301,-111,-4224066,7049,,
,,,,,,,,,,,,,,,
-60,967,2,-192,1207,691,93305,1026,22333860,53,624300,-111,-4224069,7050,,
,,,,,,,,,,,,,,,
-60,971,6,-411,1303,647,93291,1028,22333880,53,624298,-111,-4224070,7050,,
,,,,,,,,,,,,,,,
-61,969,5,-157,1163,630,93277,1029,22333900,53,624298,-111,-4224071,7049,,
,,,,,,,,,,,,,,,
-61,967,7,-262,1321,638,93291,1028,22333920,53,624297,-111,-4224071,7049,,
,,,,,,,,,,,,,,,
-60,966,4,-498,1085,542,93297,1029,22333960,53,624295,-111,-4224073,7050,,
,,,,,,,,,,,,,,,
-63,966,6,-210,1251,595,93291,1031,22333980,53,624295,-111,-4224073,7050,,
,,,,,,,,,,,,,,,
-63,967,5,-323,1181,481,93304,1031,22334000,53,624294,-111,-4224073,7050,,
,,,,,,,,,,,,,,,
-63,966,5,-297,1207,708,93293,1032,22334020,53,624294,-111,-4224075,7050,,
,,,,,,,,,,,,,,,
-60,966,5,-402,1155,621,93288,1031,22334060,53,624294,-111,-4224077,7050,,
,,,,,,,,,,,,,,,
-57,967,5,-253,1330,691,93295,1033,22334080,53,624293,-111,-4224077,7050,,
,,,,,,,,,,,,,,,
-62,969,7,-332,1312,638,93303,1033,22334100,53,624293,-111,-4224078,7050,,
,,,,,,,,,,,,,,,
-61,970,4,-148,1312,630,93305,1033,22334120,53,624291,-111,-4224078,7050,,
,,,,,,,,,,,,,,,
-60,969,6,-376,1400,691,93284,1033,22334160,53,624290,-111,-4224078,7050,,
,,,,,,,,,,,,,,,
-58,969,3,-350,1163,647,93282,1034,22334180,53,624290,-111,-4224079,7050,,
,,,,,,,,,,,,,,,
-60,967,7,-315,1347,621,93292,1035,22334200,53,624290,-111,-4224080,7050,,
,,,,,,,,,,,,,,,
-62,969,4,-385,1260,612,93296,1035,22334220,53,624289,-111,-4224082,7050,,
,,,,,,,,,,,,,,,
-59,966,5,-315,1181,647,93306,1036,22334260,53,624287,-111,-4224084,7050,,
,,,,,,,,,,,,,,,
-60,969,4,-367,1233,586,93300,1037,22334280,53,624287,-111,-4224084,7050,,
,,,,,,,,,,,,,,,
-62,969,4,-218,1181,647,93292,1037,22334300,53,624287,-111,-4224085,7050,,
,,,,,,,,,,,,,,,
-58,967,7,-358,1295,612,93294,1038,22334320,53,624284,-111,-4224086,7050,,
,,,,,,,,,,,,,,,
-58,967,5,-245,1242,542,93306,1038,22334360,53,624284,-111,-4224087,7050,,
,,,,,,,,,,,,,,,
-65,966,7,-306,1137,682,93300,1039,22334380,53,624284,-111,-4224086,7050,,
,,,,,,,,,,,,,,,
-60,968,5,-332,1225,673,93295,1039,22334400,53,624284,-111,-4224087,7050,,
,,,,,,,,,,,,,,,
-62,969,7,-288,1251,568,93305,1039,22334420,53,624284,-111,-4224088,7050,,
,,,,,,,,,,,,,,,
-63,966,3,-323,1128,603,93294,1040,22334460,53,624283,-111,-4224092,7051,,
,,,,,,,,,,,,,,,
-62,967,7,-201,1347,770,93306,1040,22334480,53,624283,-111,-4224092,7050,,
,,,,,,,,,,,,,,,
-62,967,5,-420,1190,665,93304,1041,22334500,53,624283,-111,-4224092,7050,,
,,,,,,,,,,,,,,,
-62,968,5,-350,1207,603,93296,1041,22334520,53,624282,-111,-4224095,7050,,
,,,,,,,,,,,,,,,
-60,964,4,-218,1155,586,93311,1042,22334560,53,624279,-111,-4224099,7051,,
,,,,,,,,,,,,,,,
-61,968,4,-341,1303,656,93295,1042,22334580,53,624279,-111,-4224099,7051,,
,,,,,,,,,,,,,,,
-57,966,5,-236,1198,595,93298,1042,22334600,53,624279,-111,-4224099,7051,,
,,,,,,,,,,,,,,,
-60,967,7,-280,1382,612,93297,1043,22334620,53,624277,-111,-4224099,7051,,
,,,,,,,,,,,,,,,
-62,967,7,-428,1260,665,93290,1044,22334660,53,624276,-111,-4224102,7051,,
,,,,,,,,,,,,,,,
-61,970,3,-367,1286,630,93296,1046,22334680,53,624276,-111,-4224102,7051,,
,,,,,,,,,,,,,,,
-62,971,5,-315,1198,603,93309,1046,22334700,53,624275,-111,-4224104,7051,,
,,,,,,,,,,,,,,,
-61,969,5,-385,1277,656,93297,1046,22334720,53,624273,-111,-4224105,7051,,
,,,,,,,,,,,,,,,
-60,969,8,-323,1295,630,93292,1046,22334760,53,624272,-111,-4224107,7051,,
,,,,,,,,,,,,,,,
-61,966,4,-227,1216,612,93303,1047,22334780,53,624272,-111,-4224108,7052,,
,,,,,,,,,,,,,,,
-58,967,4,-253,1268,603,93304,1048,22334800,53,624271,-111,-4224108,7052,,
,,,,,,,,,,,,,,,
-58,969,5,-288,1251,682,93297,1048,22334820,53,624271,-111,-4224108,7052,,
,,,,,,,,,,,,,,,
-65,971,5,-87,1172,691,93301,1048,22334860,53,624269,-111,-4224111,7052,,
,,,,,,,,,,,,,,,
-60,970,5,-420,1268,595,93290,1049,22334880,53,624269,-111,-4224111,7052,,
,,,,,,,,,,,,,,,
-57,969,4,-306,1365,638,93307,1049,22334900,53,624269,-111,-4224112,7052,,
,,,,,,,,,,,,,,,
-61,969,7,-280,1216,726,93291,1049,22334920,53,624269,-111,-4224114,7052,,
,,,,,,,,,,,,,,,
-62,966,4,-472,1233,638,93294,1051,22334960,53,624266,-111,-4224114,7052,,
,,,,,,,,,,,,,,,
-62,969,5,-367,1356,691,93302,1051,22334980,53,624266,-111,-4224114,7052,,
,,,,,,,,,,,,,,,
-60,965,4,-288,1181,647,93297,1052,22335000,53,624265,-111,-4224115,7052,,
,,,,,,,,,,,,,,,
-61,968,7,-297,1286,673,93297,1052,22335020,53,624265,-111,-4224116,7052,,
,,,,,,,,,,,,,,,
-61,966,4,-323,1260,647,93295,1053,22335060,53,624265,-111,-4224118,7052,,
,,,,,,,,,,,,,,,
-64,969,6,-201,1330,595,93292,1054,22335080,53,624265,-111,-4224118,7052,,
,,,,,,,,,,,,,,,
-62,968,5,-420,1277,612,93295,1053,22335100,53,624265,-111,-4224118,7052,,
,,,,,,,,,,,,,,,
-62,967,6,-227,1286,691,93284,1054,22335120,53,624265,-111,-4224116,7052,,
,,,,,,,,,,,,,,,
-63,971,7,-367,1163,743,93299,1055,22335160,53,624264,-111,-4224118,7052,,
,,,,,,,,,,,,,,,
-60,970,5,-236,1181,621,93300,1055,22335180,53,624264,-111,-4224119,7052,,
,,,,,,,,,,,,,,,
-59,969,7,-323,1303,656,93302,1055,22335200,53,624262,-111,-4224120,7053,,
,,,,,,,,,,,,,,,
-60,971,3,-420,1207,656,93295,1055,22335220,53,624261,-111,-4224121,7053,,
,,,,,,,,,,,,,,,
-63,967,6,-253,1163,612,93298,1057,22335260,53,624261,-111,-4224121,7053,,
,,,,,,,,,,,,,,,
-60,966,4,-376,1181,577,93303,1057,22335280,53,624261,-111,-4224122,7053,,
,,,,,,,,,,,,,,,
-60,971,5,-315,1268,691,93298,1057,22335300,53,624261,-111,-4224123,7053,,
,,,,,,,,,,,,,,,
-60,966,4,-393,1312,647,93301,1058,22335320,53,624261,-111,-4224127,7053,,
,,,,,,,,,,,,,,,
-60,970,7,-315,1303,603,93315,1060,22335360,53,624261,-111,-4224128,7053,,
,,,,,,,,,,,,,,,
-61,969,5,-350,1365,647,93300,1060,22335380,53,624261,-111,-4224128,7053,,
,,,,,,,,,,,,,,,
-61,966,6,-297,1277,638,93305,1061,22335400,53,624259,-111,-4224133,7054,,
,,,,,,,,,,,,,,,
-62,966,8,-236,1286,612,93297,1061,22335420,53,624258,-111,-4224135,7054,,
,,,,,,,,,,,,,,,
-61,967,5,-201,1242,691,93298,1062,22335460,53,624259,-111,-4224135,7054,,
,,,,,,,,,,,,,,,
-61,966,5,-306,1207,700,93291,1062,22335480,53,624259,-111,-4224135,7054,,
,,,,,,,,,,,,,,,
-64,968,3,-280,1207,586,93295,1062,22335500,53,624259,-111,-4224135,7054,,
,,,,,,,,,,,,,,,
-62,968,6,-210,1277,603,93297,1063,22335520,53,624259,-111,-4224136,7054,,
,,,,,,,,,,,,,,,
-61,968,5,-192,1338,612,93304,1064,22335560,53,624258,-111,-4224136,7054,,
,,,,,,,,,,,,,,,
-61,968,5,-323,1260,717,93306,1065,22335580,53,624258,-111,-4224137,7054,,
,,,,,,,,,,,,,,,
-61,970,4,-367,1382,586,93289,1065,22335600,53,624257,-111,-4224138,7055,,
,,,,,,,,,,,,,,,
-62,966,5,-271,1312,630,93297,1065,22335620,53,624255,-111,-4224140,7055,,
,,,,,,,,,,,,,,,
-60,966,7,-323,1338,586,93298,1066,22335660,53,624254,-111,-4224142,7055,,
,,,,,,,,,,,,,,,
-62,969,5,-140,1233,665,93308,1066,22335680,53,624254,-111,-4224143,7055,,
,,,,,,,,,,,,,,,
-60,967,7,-402,1295,612,93296,1066,22335700,53,624253,-111,-4224144,7055,,
,,,,,,,,,,,,,,,
-61,966,5,-262,1295,612,93293,1065,22335720,53,624251,-111,-4224149,7056,,
,,,,,,,,,,,,,,,
-61,966,5,-472,1268,656,93310,1067,22335760,53,624251,-111,-4224150,7056,,
,,,,,,,,,,,,,,,
-57,969,5,-288,1181,691,93304,1068,22335780,53,624250,-111,-4224150,7056,,
,,,,,,,,,,,,,,,
-62,969,5,-271,1198,525,93301,1069,22335800,53,624250,-111,-4224151,7057,,
,,,,,,,,,,,,,,,
-60,966,3,-393,1373,752,93301,1071,22335820,53,624248,-111,-4224151,7057,,
,,,,,,,,,,,,,,,
-60,966,7,-280,1365,770,93291,1070,22335860,53,624247,-111,-4224152,7057,,
,,,,,,,,,,,,,,,
-61,967,4,-385,1303,717,93303,1070,22335880,53,624247,-111,-4224152,7057,,
,,,,,,,,,,,,,,,
-62,966,5,-393,1356,691,93310,1071,22335900,53,624246,-111,-4224152,7057,,
,,,,,,,,,,,,,,,
-62,971,3,-385,1198,577,93298,1072,22335920,53,624244,-111,-4224154,7057,,
,,,,,,,,,,,,,,,
-60,966,4,-131,1373,656,93303,1072,22335960,53,624244,-111,-4224155,7057,,
,,,,,,,,,,,,,,,
-62,968,5,-463,1225,700,93292,1072,22335980,53,624243,-111,-4224156,7057,,
,,,,,,,,,,,,,,,
-61,972,3,-157,1198,577,93314,1074,22340000,53,624243,-111,-4224157,7057,,
,,,,,,,,,,,,,,,
-63,969,5,-227,1347,752,93295,1072,22340020,53,624240,-111,-4224159,7058,,
,,,,,,,,,,,,,,,
-61,968,4,-288,1251,595,93295,1072,22340060,53,624240,-111,-4224163,7058,,
,,,,,,,,,,,,,,,
-62,968,4,-350,1190,673,93295,1075,22340080,53,624240,-111,-4224164,7058,,
,,,,,,,,,,,,,,,
-60,967,4,-411,1233,708,93309,1076,22340100,53,624239,-111,-4224164,7058,,
,,,,,,,,,,,,,,,
-60,964,5,-218,1242,621,93307,1076,22340120,53,624239,-111,-4224165,7059,,
,,,,,,,,,,,,,,,
-60,966,6,-332,1391,656,93299,1077,22340160,53,624237,-111,-4224164,7059,,
,,,,,,,,,,,,,,,
-60,969,7,-218,1268,586,93292,1077,22340180,53,624236,-111,-4224165,7059,,
,,,,,,,,,,,,,,,
-62,968,5,-367,1216,647,93295,1077,22340200,53,624235,-111,-4224165,7060,,
,,,,,,,,,,,,,,,
-62,966,3,-288,1286,656,93286,1079,22340220,53,624233,-111,-4224166,7060,,
,,,,,,,,,,,,,,,
-63,969,6,-297,1391,735,93303,1079,22340260,53,624232,-111,-4224167,7060,,
,,,,,,,,,,,,,,,
-61,969,4,-297,1408,603,93300,1079,22340280,53,624232,-111,-4224169,7060,,
,,,,,,,,,,,,,,,
-63,968,5,-280,1321,665,93306,1080,22340300,53,624232,-111,-4224170,7060,,
,,,,,,,,,,,,,,,
-62,966,5,-253,1312,647,93297,1080,22340320,53,624230,-111,-4224171,7060,,
,,,,,,,,,,,,,,,
-60,969,7,-323,1312,630,93286,1080,22340360,53,624229,-111,-4224169,7061,,
,,,,,,,,,,,,,,,
-60,969,5,-463,1277,595,93295,1081,22340380,53,624229,-111,-4224171,7061,,
,,,,,,,,,,,,,,,
-61,963,7,-262,1172,621,93293,1082,22340400,53,624228,-111,-4224178,7062,,
,,,,,,,,,,,,,,,
-61,968,5,-367,1242,533,93296,1083,22340420,53,624225,-111,-4224184,7062,,
,,,,,,,,,,,,,,,
-64,968,5,-402,1312,673,93303,1082,22340460,53,624225,-111,-4224186,7063,,
,,,,,,,,,,,,,,,
-61,967,4,-306,1216,665,93306,1084,22340480,53,624225,-111,-4224186,7063,,
,,,,,,,,,,,,,,,
-62,969,4,-332,1356,612,93298,1084,22340500,53,624225,-111,-4224187,7063,,
,,,,,,,,,,,,,,,
-63,965,5,-358,1111,586,93296,1085,22340520,53,624223,-111,-4224190,7064,,
,,,,,,,,,,,,,,,
-61,968,7,-315,1155,673,93287,1085,22340560,53,624222,-111,-4224192,7064,,
,,,,,,,,,,,,,,,
-58,966,5,-280,1207,630,93300,1085,22340580,53,624222,-111,-4224193,7064,,
,,,,,,,,,,,,,,,
-61,964,3,-306,1365,630,93292,1085,22340600,53,624222,-111,-4224193,7064,,
,,,,,,,,,,,,,,,
-65,965,7,-96,1286,621,93307,1086,22340620,53,624221,-111,-4224195,7065,,
,,,,,,,,,,,,,,,
-57,969,5,-288,1233,586,93290,1086,22340660,53,624218,-111,-4224199,7065,,
,,,,,,,,,,,,,,,
-60,969,7,-236,1286,603,93296,1087,22340680,53,624217,-111,-4224200,7066,,
,,,,,,,,,,,,,,,
-62,966,4,-341,1277,630,93297,1089,22340700,53,624215,-111,-4224202,7066,,
,,,,,,,,,,,,,,,
-63,969,5,-332,1338,595,93303,1089,22340720,53,624215,-111,-4224203,7066,,
,,,,,,,,,,,,,,,
-61,970,8,-253,1260,630,93306,1091,22340760,53,624215,-111,-4224203,7066,,
,,,,,,,,,,,,,,,
-60,966,4,-376,1190,612,93304,1090,22340780,53,624214,-111,-4224203,7066,,
,,,,,,,,,,,,,,,
-62,966,5,-463,1225,595,93297,1091,22340800,53,624212,-111,-4224203,7066,,
,,,,,,,,,,,,,,,
-63,968,3,-271,1277,560,93298,1091,22340820,53,624212,-111,-4224203,7066,,
,,,,,,,,,,,,,,,
-60,967,6,-341,1146,726,93299,1092,22340860,53,624212,-111,-4224206,7066,,
,,,,,,,,,,,,,,,
-60,969,5,-288,1172,542,93296,1092,22340880,53,624211,-111,-4224207,7067,,
,,,,,,,,,,,,,,,
-63,968,6,-358,1198,577,93296,1092,22340900,53,624210,-111,-4224207,7067,,
,,,,,,,,,,,,,,,
-60,970,4,-262,1128,647,93305,1092,22340920,53,624208,-111,-4224209,7067,,
,,,,,,,,,,,,,,,
-60,963,5,-245,1225,621,93294,1093,22340960,53,624207,-111,-4224212,7068,,
,,,,,,,,,,,,,,,
-61,970,4,-315,1242,656,93305,1095,22340980,53,624205,-111,-4224213,7068,,
,,,,,,,,,,,,,,,
-61,971,5,-472,1321,717,93310,1095,22341000,53,624204,-111,-4224213,7068,,
,,,,,,,,,,,,,,,
-62,965,8,-472,1347,603,93306,1095,22341020,53,624203,-111,-4224214,7068,,
,,,,,,,,,,,,,,,
-62,968,5,-245,1233,595,93300,1096,22341060,53,624201,-111,-4224213,7068,,
,,,,,,,,,,,,,,,
-60,967,4,-262,1207,673,93291,1095,22341080,53,624201,-111,-4224215,7069,,
,,,,,,,,,,,,,,,
-62,966,4,-262,1058,577,93289,1097,22341100,53,624200,-111,-4224215,7069,,
,,,,,,,,,,,,,,,
-65,972,6,-332,1461,656,93303,1098,22341120,53,624200,-111,-4224214,7069,,
,,,,,,,,,,,,,,,
-61,969,4,-332,1216,612,93305,1098,22341160,53,624200,-111,-4224213,7069,,
,,,,,,,,,,,,,,,
-61,966,8,-315,1312,551,93298,1097,22341180,53,624200,-111,-4224213,7069,,
,,,,,,,,,,,,,,,
-62,966,5,-385,1207,630,93299,1099,22341200,53,624200,-111,-4224214,7069,,
,,,,,,,,,,,,,,,
-64,967,8,-245,1338,603,93285,1099,22341220,53,624199,-111,-4224215,7069,,
,,,,,,,,,,,,,,,
-60,966,8,-262,1330,638,93292,1100,22341260,53,624197,-111,-4224216,7070,,
,,,,,,,,,,,,,,,
-60,966,6,-280,1233,603,93301,1100,22341280,53,624197,-111,-4224216,7070,,
,,,,,,,,,,,,,,,
-59,969,5,-393,1303,612,93306,1101,22341300,53,624194,-111,-4224217,7070,,
,,,,,,,,,,,,,,,
-46,959,16,-393,1435,647,93296,1102,22341320,53,624193,-111,-4224219,7071,,
,,,,,,,,,,,,,,,
-62,964,2,-358,1365,595,93308,1102,22341360,53,624193,-111,-4224217,7071,,
,,,,,,,,,,,,,,,
-60,975,2,-367,910,638,93293,1103,22341380,53,624192,-111,-4224217,7071,,
,,,,,,,,,,,,,,,
-60,964,7,-183,1435,708,93301,1103,22341400,53,624189,-111,-4224217,7071,,
,,,,,,,,,,,,,,,
-54,964,3,-490,1618,638,93299,1104,22341420,53,624187,-111,-4224220,7071,,
,,,,,,,,,,,,,,,
-61,972,13,-341,1365,647,93301,1105,22341460,53,624185,-111,-4224222,7072,,
,,,,,,,,,,,,,,,
-60,969,2,-481,1076,665,93287,1105,22341480,53,624183,-111,-4224222,7072,,
,,,,,,,,,,,,,,,
-67,962,6,-315,1356,647,93310,1105,22341500,53,624182,-111,-4224222,7073,,
,,,,,,,,,,,,,,,
-44,965,17,-603,78,568,93299,1106,22341520,53,624182,-111,-4224222,7073,,
,,,,,,,,,,,,,,,
-54,969,6,-78,1522,630,93305,1107,22341560,53,624181,-111,-4224223,7073,,
,,,,,,,,,,,,,,,
-62,954,12,-437,831,638,93317,1107,22341580,53,624181,-111,-4224224,7074,,
,,,,,,,,,,,,,,,
-65,977,-2,-148,481,577,93293,1108,22341600,53,624181,-111,-4224226,7074,,
,,,,,,,,,,,,,,,
-52,977,1,-271,428,717,93313,1109,22341620,53,624179,-111,-4224224,7074,,
,,,,,,,,,,,,,,,
-46,969,-7,-472,1470,446,93300,1109,22341660,53,624178,-111,-4224223,7074,,
,,,,,,,,,,,,,,,
-65,984,5,-105,822,743,93302,1110,22341680,53,624179,-111,-4224223,7074,,
,,,,,,,,,,,,,,,
-51,976,14,-70,1575,481,93302,1110,22341700,53,624178,-111,-4224224,7074,,
,,,,,,,,,,,,,,,
-95,966,36,-218,-997,525,93294,1110,22341720,53,624176,-111,-4224226,7074,,
,,,,,,,,,,,,,,,
-85,824,8,-341,9012,402,93297,1111,22341760,53,624175,-111,-4224226,7075,,
,,,,,,,,,,,,,,,
-89,1152,105,-411,-4313,700,93301,1111,22341780,53,624174,-111,-4224224,7075,,
,,,,,,,,,,,,,,,
-135,830,93,-682,5600,586,93307,1112,22341800,53,624172,-111,-4224224,7075,,
,,,,,,,,,,,,,,,
-44,1051,2,385,525,455,93298,1112,22341820,53,624171,-111,-4224224,7076,,
,,,,,,,,,,,,,,,
-85,975,-21,-848,4086,341,93296,1113,22341860,53,624169,-111,-4224223,7077,,
,,,,,,,,,,,,,,,
-81,953,65,105,-1443,805,93301,1113,22341880,53,624169,-111,-4224223,7077,,
,,,,,,,,,,,,,,,
-66,910,32,-367,3552,455,93306,1114,22341900,53,624168,-111,-4224222,7078,,
,,,,,,,,,,,,,,,
-61,990,19,-262,-131,778,93295,1114,22341920,53,624168,-111,-4224222,7077,,
,,,,,,,,,,,,,,,
-52,966,14,-393,4252,498,93300,1115,22341960,53,624167,-111,-4224222,7078,,
,,,,,,,,,,,,,,,
-56,935,4,-113,1540,656,93300,1115,22341980,53,624167,-111,-4224222,7078,,
,,,,,,,,,,,,,,,
-54,994,25,-332,-1058,498,93312,1117,22342000,53,624167,-111,-4224222,7078,,
,,,,,,,,,,,,,,,
-71,976,13,-315,3036,481,93300,1117,22342020,53,624167,-111,-4224222,7078,,
,,,,,,,,,,,,,,,
-58,974,10,-280,2030,638,93302,1119,22342060,53,624167,-111,-4224224,7078,,
,,,,,,,,,,,,,,,
-46,966,16,-542,2161,673,93297,1117,22342080,53,624168,-111,-4224226,7078,,
,,,,,,,,,,,,,,,
-73,968,2,-262,3150,560,93298,1119,22342100,53,624168,-111,-4224227,7078,,
,,,,,,,,,,,,,,,
-55,950,13,-323,175,892,93298,1119,22342120,53,624168,-111,-4224227,7078,,
,,,,,,,,,,,,,,,
-81,972,-8,-402,-280,341,93291,1119,22342160,53,624168,-111,-4224227,7077,,
,,,,,,,,,,,,,,,
-60,955,5,-280,3115,673,93290,1121,22342180,53,624168,-111,-4224228,7077,,
,,,,,,,,,,,,,,,
-59,983,10,-288,1163,612,93304,1122,22342200,53,624168,-111,-4224228,7078,,
,,,,,,,,,,,,,,,
-63,966,6,-288,3578,533,93296,1122,22342220,53,624168,-111,-4224229,7077,,
,,,,,,,,,,,,,,,
-57,974,13,-288,1995,840,93294,1123,22342260,53,624171,-111,-4224229,7077,,
,,,,,,,,,,,,,,,
-58,975,14,-446,910,560,93289,1122,22342280,53,624171,-111,-4224230,7077,,
,,,,,,,,,,,,,,,
-62,964,2,-332,1050,726,93307,1123,22342300,53,624171,-111,-4224231,7077,,
,,,,,,,,,,,,,,,
-47,962,6,-411,2073,673,93303,1123,22342320,53,624172,-111,-4224231,7076,,
,,,,,,,,,,,,,,,
-68,970,5,-262,875,612,93302,1125,22342360,53,624175,-111,-4224234,7076,,
,,,,,,,,,,,,,,,
-56,950,5,-201,323,525,93294,1125,22342380,53,624175,-111,-4224236,7076,,
,,,,,,,,,,,,,,,
-62,939,8,-218,140,586,93309,1126,22342400,53,624175,-111,-4224236,7075,,
,,,,,,,,,,,,,,,
-59,975,8,-315,1452,603,93290,1125,22342420,53,624175,-111,-4224237,7075,,
,,,,,,,,,,,,,,,
-62,923,2,-306,525,551,93304,1125,22342460,53,624178,-111,-4224237,7075,,
,,,,,,,,,,,,,,,
-48,980,5,-227,525,603,93295,1127,22342480,53,624179,-111,-4224239,7075,,
,,,,,,,,,,,,,,,
-63,948,7,-367,1190,630,93299,1127,22342500,53,624181,-111,-4224239,7075,,
,,,,,,,,,,,,,,,
-69,961,3,-113,1662,568,93297,1128,22342520,53,624182,-111,-4224243,7074,,
,,,,,,,,,,,,,,,
-49,975,25,-315,1233,551,93302,1128,22342560,53,624183,-111,-4224244,7074,,
,,,,,,,,,,,,,,,
-62,970,5,-437,1303,700,93302,1128,22342580,53,624183,-111,-4224244,7073,,
,,,,,,,,,,,,,,,
-56,969,19,-323,2012,638,93302,1129,22342600,53,624185,-111,-4224245,7073,,
,,,,,,,,,,,,,,,
-53,982,16,-700,2275,481,93308,1130,22342620,53,624187,-111,-4224248,7072,,
,,,,,,,,,,,,,,,
-82,1054,-24,-288,3640,945,93298,1131,22342660,53,624190,-111,-4224249,7072,,
,,,,,,,,,,,,,,,
-54,1013,27,-446,1610,446,93301,1130,22342680,53,624192,-111,-4224251,7072,,
,,,,,,,,,,,,,,,
-52,961,4,-323,1242,735,93294,1131,22342700,53,624192,-111,-4224251,7072,,
,,,,,,,,,,,,,,,
-68,965,7,-227,1828,665,93305,1132,22342720,53,624193,-111,-4224253,7071,,
,,,,,,,,,,,,,,,
-46,972,8,-542,1863,603,93294,1134,22342760,53,624196,-111,-4224255,7071,,
,,,,,,,,,,,,,,,
-64,966,7,-78,1207,673,93299,1134,22342780,53,624197,-111,-4224255,7070,,
,,,,,,,,,,,,,,,
-55,965,8,-411,1811,586,93295,1134,22342800,53,624197,-111,-4224255,7070,,
,,,,,,,,,,,,,,,
-59,964,13,-227,1023,525,93306,1135,22342820,53,624200,-111,-4224256,7070,,
,,,,,,,,,,,,,,,
-63,972,7,-306,586,717,93289,1135,22342860,53,624201,-111,-4224256,7069,,
,,,,,,,,,,,,,,,
-64,969,5,-358,1181,472,93302,1135,22342880,53,624201,-111,-4224256,7068,,
,,,,,,,,,,,,,,,
-51,977,6,-280,516,726,93307,1136,22342900,53,624203,-111,-4224256,7068,,
,,,,,,,,,,,,,,,
-68,962,3,-402,2371,341,93304,1137,22342920,53,624204,-111,-4224257,7068,,
,,,,,,,,,,,,,,,
-53,969,6,-253,2178,700,93310,1138,22342960,53,624205,-111,-4224256,7067,,
,,,,,,,,,,,,,,,
-49,970,5,-455,1855,612,93302,1138,22342980,53,624205,-111,-4224256,7067,,
,,,,,,,,,,,,,,,
-63,966,5,-96,1925,761,93302,1138,22343000,53,624207,-111,-4224258,7067,,
,,,,,,,,,,,,,,,
-59,968,12,-341,857,673,93301,1139,22343020,53,624207,-111,-4224258,7066,,
,,,,,,,,,,,,,,,
-65,964,-4,-245,1312,402,93310,1139,22343060,53,624210,-111,-4224258,7066,,
,,,,,,,,,,,,,,,
-57,975,6,-262,1452,796,93299,1140,22343080,53,624210,-111,-4224259,7066,,
,,,,,,,,,,,,,,,
-54,969,8,-201,148,490,93303,1140,22343100,53,624211,-111,-4224259,7065,,
,,,,,,,,,,,,,,,
-64,964,1,-297,1706,560,93303,1140,22343120,53,624211,-111,-4224262,7065,,
,,,,,,,,,,,,,,,
-49,976,6,-385,1522,735,93301,1141,22343160,53,624211,-111,-4224262,7064,,
,,,,,,,,,,,,,,,
-60,964,2,-350,1435,481,93298,1141,22343180,53,624212,-111,-4224262,7064,,
,,,,,,,,,,,,,,,
-61,966,4,-332,1330,673,93304,1142,22343200,53,624214,-111,-4224260,7064,,
,,,,,,,,,,,,,,,
-62,962,4,-315,997,463,93297,1143,22343220,53,624215,-111,-4224260,7063,,
,,,,,,,,,,,,,,,
-57,966,12,-297,945,708,93297,1143,22343260,53,624218,-111,-4224264,7063,,
,,,,,,,,,,,,,,,
-56,968,10,-323,2065,577,93305,1145,22343280,53,624219,-111,-4224265,7063,,
,,,,,,,,,,,,,,,
-60,967,10,-271,1487,647,93295,1144,22343300,53,624221,-111,-4224265,7063,,
,,,,,,,,,,,,,,,
-59,968,8,-262,1172,603,93305,1145,22343320,53,624222,-111,-4224266,7063,,
,,,,,,,,,,,,,,,
-56,967,13,-323,2021,516,93302,1145,22343360,53,624225,-111,-4224268,7063,,
,,,,,,,,,,,,,,,
-60,972,4,-262,822,691,93303,1146,22343380,53,624226,-111,-4224270,7062,,
,,,,,,,,,,,,,,,
-54,969,8,-420,1811,568,93312,1146,22343400,53,624229,-111,-4224271,7062,,
,,,,,,,,,,,,,,,
-59,969,10,-87,1277,603,93298,1147,22343420,53,624230,-111,-4224272,7062,,
,,,,,,,,,,,,,,,
-59,966,8,-350,1820,507,93301,1147,22343460,53,624233,-111,-4224272,7062,,
,,,,,,,,,,,,,,,
-62,968,4,-245,2730,778,93299,1148,22343480,53,624235,-111,-4224272,7062,,
,,,,,,,,,,,,,,,
-60,963,19,-201,2861,542,93300,1149,22343500,53,624235,-111,-4224272,7061,,
,,,,,,,,,,,,,,,
-55,968,4,-332,1067,700,93296,1150,22343520,53,624236,-111,-4224273,7062,,
,,,,,,,,,,,,,,,
-59,969,5,-253,2765,533,93306,1150,22343560,53,624237,-111,-4224275,7062,,
,,,,,,,,,,,,,,,
-57,972,3,-323,1085,735,93299,1151,22343580,53,624240,-111,-4224275,7061,,
,,,,,,,,,,,,,,,
-66,968,4,-455,1645,498,93301,1152,22343600,53,624240,-111,-4224277,7061,,
,,,,,,,,,,,,,,,
-62,965,13,-437,953,595,93305,1152,22343620,53,624243,-111,-4224278,7061,,
,,,,,,,,,,,,,,,
-52,965,7,-367,1645,700,93288,1152,22343660,53,624243,-111,-4224278,7060,,
,,,,,,,,,,,,,,,
-66,968,14,-78,1872,586,93309,1152,22343680,53,624244,-111,-4224279,7060,,
,,,,,,,,,,,,,,,
-66,968,17,-428,1645,603,93310,1154,22343700,53,624247,-111,-4224279,7059,,
,,,,,,,,,,,,,,,
-51,969,2,-78,1697,560,93301,1154,22343720,53,624250,-111,-4224280,7058,,
,,,,,,,,,,,,,,,
-81,969,10,-297,918,673,93301,1154,22343760,53,624253,-111,-4224280,7057,,
,,,,,,,,,,,,,,,
-51,968,15,-323,1155,612,93315,1154,22343780,53,624253,-111,-4224280,7057,,
,,,,,,,,,,,,,,,
-63,966,9,-253,1487,551,93291,1155,22343800,53,624254,-111,-4224281,7057,,
,,,,,,,,,,,,,,,
-63,969,7,-315,988,866,93301,1156,22343820,53,624255,-111,-4224282,7057,,
,,,,,,,,,,,,,,,
-58,969,10,-306,1338,428,93300,1157,22343860,53,624258,-111,-4224285,7056,,
,,,,,,,,,,,,,,,
-65,967,12,-210,1050,822,93301,1156,22343880,53,624259,-111,-4224286,7056,,
,,,,,,,,,,,,,,,
-51,966,13,-297,997,577,93303,1157,22343900,53,624261,-111,-4224287,7055,,
,,,,,,,,,,,,,,,
-68,968,10,-341,1111,437,93300,1157,22343920,53,624262,-111,-4224287,7055,,
,,,,,,,,,,,,,,,
-54,970,9,-402,1172,743,93315,1159,22343960,53,624265,-111,-4224288,7055,,
,,,,,,,,,,,,,,,
-62,963,4,-192,1268,472,93316,1159,22343980,53,624268,-111,-4224288,7054,,
,,,,,,,,,,,,,,,
-61,970,16,-420,1321,691,93299,1159,22344000,53,624269,-111,-4224291,7054,,
,,,,,,,,,,,,,,,
-52,968,6,-358,1522,638,93301,1160,22344020,53,624272,-111,-4224292,7054,,
,,,,,,,,,,,,,,,
-59,971,6,-227,1960,586,93310,1160,22344060,53,624273,-111,-4224294,7053,,
,,,,,,,,,,,,,,,
-60,968,16,-455,1076,708,93302,1160,22344080,53,624275,-111,-4224294,7053,,
,,,,,,,,,,,,,,,
-60,962,5,-385,1461,682,93310,1160,22344100,53,624276,-111,-4224294,7053,,
,,,,,,,,,,,,,,,
-54,971,14,-17,1732,577,93309,1162,22344120,53,624277,-111,-4224296,7053,,
,,,,,,,,,,,,,,,
-62,961,10,-542,1076,778,93303,1163,22344160,53,624279,-111,-4224298,7052,,
,,,,,,,,,,,,,,,
-62,972,6,52,1015,630,93304,1163,22344180,53,624280,-111,-4224298,7052,,
,,,,,,,,,,,,,,,
-59,966,16,-341,1076,682,93305,1165,22344200,53,624282,-111,-4224299,7051,,
,,,,,,,,,,,,,,,
-65,962,5,-271,1295,665,93306,1165,22344220,53,624283,-111,-4224300,7051,,
,,,,,,,,,,,,,,,
-44,978,13,-183,1417,621,93306,1165,22344260,53,624286,-111,-4224301,7051,,
,,,,,,,,,,,,,,,
-57,959,9,-411,901,560,93298,1165,22344280,53,624287,-111,-4224301,7051,,
,,,,,,,,,,,,,,,
-68,973,8,-52,883,656,93299,1166,22344300,53,624287,-111,-4224302,7051,,
,,,,,,,,,,,,,,,
-57,967,7,-507,971,568,93320,1166,22344320,53,624290,-111,-4224302,7051,,
,,,,,,,,,,,,,,,
-56,968,8,-52,1015,463,93295,1168,22344360,53,624291,-111,-4224304,7050,,
,,,,,,,,,,,,,,,
-62,969,8,-297,1338,761,93300,1168,22344380,53,624293,-111,-4224306,7049,,
,,,,,,,,,,,,,,,
-60,964,6,-280,1321,516,93305,1169,22344400,53,624293,-111,-4224307,7049,,
,,,,,,,,,,,,,,,
-55,968,18,-245,1391,603,93297,1169,22344420,53,624294,-111,-4224307,7048,,
,,,,,,,,,,,,,,,
-62,966,4,-358,1242,647,93299,1170,22344460,53,624295,-111,-4224309,7047,,
,,,,,,,,,,,,,,,
-65,967,9,-192,1522,525,93299,1170,22344480,53,624297,-111,-4224309,7048,,
,,,,,,,,,,,,,,,
-57,965,13,-385,1277,612,93306,1169,22344500,53,624297,-111,-4224309,7047,,
,,,,,,,,,,,,,,,
-63,968,2,-376,1400,612,93309,1171,22344520,53,624298,-111,-4224311,7047,,
,,,,,,,,,,,,,,,
-56,967,18,-297,1592,708,93306,1171,22344560,53,624300,-111,-4224315,7046,,
,,,,,,,,,,,,,,,
-62,966,5,-288,1023,525,93292,1173,22344580,53,624301,-111,-4224316,7046,,
,,,,,,,,,,,,,,,
-60,975,6,-183,1400,603,93286,1172,22344600,53,624301,-111,-4224318,7046,,
,,,,,,,,,,,,,,,
-59,964,10,-315,1785,472,93301,1173,22344620,53,624302,-111,-4224321,7045,,
,,,,,,,,,,,,,,,
-61,967,11,-201,1575,743,93310,1173,22344660,53,624304,-111,-4224323,7044,,
,,,,,,,,,,,,,,,
-61,966,8,-463,796,656,93300,1174,22344680,53,624304,-111,-4224323,7045,,
,,,,,,,,,,,,,,,
-60,970,4,-113,1496,568,93294,1174,22344700,53,624304,-111,-4224323,7044,,
,,,,,,,,,,,,,,,
-58,973,16,-341,1688,735,93301,1175,22344720,53,624305,-111,-4224325,7044,,
,,,,,,,,,,,,,,,
-68,957,-1,-280,997,621,93306,1175,22344760,53,624305,-111,-4224330,7044,,
,,,,,,,,,,,,,,,
-53,972,18,-192,857,612,93304,1176,22344780,53,624307,-111,-4224330,7043,,
,,,,,,,,,,,,,,,
-62,964,6,-315,358,560,93292,1177,22344800,53,624308,-111,-4224332,7043,,
,,,,,,,,,,,,,,,
-62,969,7,-61,1575,665,93305,1177,22344820,53,624308,-111,-4224334,7043,,
,,,,,,,,,,,,,,,
-50,976,6,-367,2310,586,93306,1177,22344860,53,624309,-111,-4224336,7042,,
,,,,,,,,,,,,,,,
-65,963,2,-35,778,673,93308,1178,22344880,53,624309,-111,-4224335,7041,,
,,,,,,,,,,,,,,,
-58,972,2,-455,638,638,93306,1179,22344900,53,624309,-111,-4224336,7040,,
,,,,,,,,,,,,,,,
-62,967,0,-166,603,603,93302,1179,22344920,53,624311,-111,-4224337,7040,,
,,,,,,,,,,,,,,,
-56,964,12,-315,1023,717,93309,1179,22344960,53,624311,-111,-4224338,7039,,
,,,,,,,,,,,,,,,
-59,972,6,-306,1172,516,93311,1180,22344980,53,624311,-111,-4224339,7039,,
,,,,,,,,,,,,,,,
-62,964,6,-297,1855,638,93300,1181,22345000,53,624312,-111,-4224340,7038,,
,,,,,,,,,,,,,,,
-56,966,15,-218,813,612,93314,1182,22345020,53,624312,-111,-4224343,7038,,
,,,,,,,,,,,,,,,
-63,968,6,-183,551,420,93301,1182,22345060,53,624312,-111,-4224344,7037,,
,,,,,,,,,,,,,,,
-57,969,5,-96,936,673,93299,1183,22345080,53,624313,-111,-4224344,7037,,
,,,,,,,,,,,,,,,
-61,970,3,-227,463,525,93283,1183,22345100,53,624315,-111,-4224344,7036,,
,,,,,,,,,,,,,,,
-67,967,5,-236,1225,726,93308,1183,22345120,53,624315,-111,-4224345,7037,,
,,,,,,,,,,,,,,,
-50,966,10,-376,1487,647,93302,1184,22345160,53,624315,-111,-4224349,7036,,
,,,,,,,,,,,,,,,
-68,964,8,-297,1015,542,93291,1185,22345180,53,624315,-111,-4224347,7036,,
,,,,,,,,,,,,,,,
-59,969,13,-306,1863,717,93299,1185,22345200,53,624316,-111,-4224350,7036,,
,,,,,,,,,,,,,,,
-57,969,10,-358,1067,481,93315,1187,22345220,53,624316,-111,-4224351,7035,,
,,,,,,,,,,,,,,,
-68,967,3,-113,1251,603,93312,1187,22345260,53,624319,-111,-4224351,7035,,
,,,,,,,,,,,,,,,
-55,969,16,-253,1268,656,93321,1187,22345280,53,624319,-111,-4224351,7035,,
,,,,,,,,,,,,,,,
-62,965,2,-332,1382,568,93304,1187,22345300,53,624319,-111,-4224351,7035,,
,,,,,,,,,,,,,,,
-65,969,8,-192,1636,638,93304,1187,22345320,53,624320,-111,-4224352,7034,,
,,,,,,,,,,,,,,,
-57,970,8,-280,1408,595,93319,1188,22345360,53,624322,-111,-4224357,7034,,
,,,,,,,,,,,,,,,
-62,971,6,-218,1190,708,93298,1188,22345380,53,624322,-111,-4224357,7034,,
,,,,,,,,,,,,,,,
-59,972,13,-201,1820,665,93304,1189,22345400,53,624323,-111,-4224358,7034,,
,,,,,,,,,,,,,,,
-60,964,7,-455,603,630,93296,1190,22345420,53,624323,-111,-4224358,7034,,
,,,,,,,,,,,,,,,
-55,976,6,-315,2528,665,93306,1190,22345460,53,624326,-111,-4224359,7033,,
,,,,,,,,,,,,,,,
-62,968,13,-332,2213,752,93305,1192,22345480,53,624325,-111,-4224360,7032,,
,,,,,,,,,,,,,,,
-66,972,-2,-131,1741,700,93309,1192,22345500,53,624325,-111,-4224364,7032,,
,,,,,,,,,,,,,,,
-67,1324,-26,-411,2721,1085,93303,1193,22345520,53,624325,-111,-4224366,7032,,
,,,,,,,,,,,,,,,
-34,1055,17,-446,927,446,93295,1193,22345560,53,624326,-111,-4224368,7032,,
,,,,,,,,,,,,,,,
-71,936,19,-1006,2747,848,93308,1193,22345580,53,624326,-111,-4224370,7032,,
,,,,,,,,,,,,,,,
-78,961,8,-323,5740,245,93296,1193,22345600,53,624327,-111,-4224371,7033,,
,,,,,,,,,,,,,,,
-54,942,25,-481,3762,1015,93314,1194,22345620,53,624329,-111,-4224372,7033,,
,,,,,,,,,,,,,,,
-37,980,27,-236,-2773,341,93305,1194,22345660,53,624330,-111,-4224373,7034,,
,,,,,,,,,,,,,,,
-78,964,28,-245,516,787,93294,1194,22345680,53,624330,-111,-4224374,7034,,
,,,,,,,,,,,,,,,
-50,972,1,-376,1050,516,93308,1195,22345700,53,624331,-111,-4224375,7034,,
,,,,,,,,,,,,,,,
-58,971,18,-280,2178,385,93302,1197,22345720,53,624331,-111,-4224376,7035,,
,,,,,,,,,,,,,,,
-58,976,7,-402,1898,787,93302,1197,22345760,53,624330,-111,-4224379,7036,,
,,,,,,,,,,,,,,,
-53,956,2,52,1863,393,93312,1198,22345780,53,624330,-111,-4224380,7036,,
,,,,,,,,,,,,,,,
-54,977,22,-428,2476,708,93297,1199,22345800,53,624330,-111,-4224380,7036,,
,,,,,,,,,,,,,,,
-28,1112,26,-437,2047,743,93306,1199,22345820,53,624331,-111,-4224380,7037,,
,,,,,,,,,,,,,,,
-91,957,29,201,4068,297,93314,1199,22345860,53,624333,-111,-4224381,7037,,
,,,,,,,,,,,,,,,
-76,999,16,-367,2528,910,93298,1199,22345880,53,624333,-111,-4224382,7038,,
,,,,,,,,,,,,,,,
-65,966,-1,-297,1382,341,93300,1200,22345900,53,624333,-111,-4224382,7038,,
,,,,,,,,,,,,,,,
-74,1205,-29,-227,5013,656,93310,1201,22345920,53,624333,-111,-4224383,7038,,
,,,,,,,,,,,,,,,
-84,1233,-73,-665,5783,332,93308,1202,22345960,53,624334,-111,-4224385,7039,,
,,,,,,,,,,,,,,,
-29,862,41,-595,3438,367,93307,1202,22345980,53,624336,-111,-4224386,7040,,
,,,,,,,,,,,,,,,
-76,925,32,17,-87,472,93296,1203,22350000,53,624336,-111,-4224386,7040,,
,,,,,,,,,,,,,,,
-63,956,16,-288,245,656,93301,1203,22350020,53,624337,-111,-4224387,7041,,
,,,,,,,,,,,,,,,
-57,1079,48,-962,437,840,93294,1203,22350060,53,624337,-111,-4224387,7042,,
,,,,,,,,,,,,,,,
-38,881,2,-306,-612,665,93294,1203,22350080,53,624338,-111,-4224387,7042,,
,,,,,,,,,,,,,,,
-87,785,76,-218,-52,420,93307,1204,22350100,53,624338,-111,-4224387,7043,,
,,,,,,,,,,,,,,,
-171,1069,31,-78,2476,673,93306,1205,22350120,53,624340,-111,-4224387,7043,,
,,,,,,,,,,,,,,,
-160,1024,23,-533,-840,603,93308,1206,22350160,53,624340,-111,-4224386,7044,,
,,,,,,,,,,,,,,,
4,927,81,-315,1006,708,93304,1206,22350180,53,624340,-111,-4224385,7044,,
,,,,,,,,,,,,,,,
-65,1016,10,-271,3176,551,93308,1206,22350200,53,624341,-111,-4224385,7044,,
,,,,,,,,,,,,,,,
-188,764,13,183,1015,175,93313,1206,22350220,53,624341,-111,-4224385,7045,,
,,,,,,,,,,,,,,,
-76,1051,13,-402,1785,831,93310,1207,22350260,53,624343,-111,-4224383,7045,,
,,,,,,,,,,,,,,,
-77,913,2,-236,-8330,446,93310,1207,22350280,53,624344,-111,-4224381,7045,,
,,,,,,,,,,,,,,,
-87,1002,2,148,3045,665,93303,1208,22350300,53,624344,-111,-4224380,7045,,
,,,,,,,,,,,,,,,
-50,928,2,-385,376,533,93313,1209,22350320,53,624344,-111,-4224381,7046,,
,,,,,,,,,,,,,,,
-54,980,8,-411,-306,848,93309,1209,22350360,53,624345,-111,-4224380,7046,,
,,,,,,,,,,,,,,,
-57,955,10,-183,1137,516,93308,1210,22350380,53,624345,-111,-4224380,7046,,
,,,,,,,,,,,,,,,
-64,972,-2,-385,1330,708,93304,1210,22350400,53,624347,-111,-4224378,7046,,
,,,,,,,,,,,,,,,
-55,967,21,-78,1767,638,93310,1211,22350420,53,624345,-111,-4224378,7047,,
,,,,,,,,,,,,,,,
-57,960,3,-411,1163,577,93299,1212,22350460,53,624347,-111,-4224375,7048,,
,,,,,,,,,,,,,,,
-64,971,8,26,1443,568,93312,1212,22350480,53,624345,-111,-4224374,7048,,
,,,,,,,,,,,,,,,
-60,966,10,-568,1076,586,93314,1213,22350500,53,624347,-111,-4224374,7048,,
,,,,,,,,,,,,,,,
-65,966,4,61,997,638,93298,1214,22350520,53,624348,-111,-4224373,7048,,
,,,,,,,,,,,,,,,
-56,962,5,-350,1032,577,93309,1216,22350560,53,624348,-111,-4224370,7048,,
,,,,,,,,,,,,,,,
-62,969,-5,-350,1093,638,93310,1214,22350580,53,624348,-111,-4224367,7048,,
,,,,,,,,,,,,,,,
-69,971,15,-218,1531,656,93313,1216,22350600,53,624348,-111,-4224366,7048,,
,,,,,,,,,,,,,,,
-63,960,5,-568,1872,516,93305,1216,22350620,53,624349,-111,-4224366,7048,,
,,,,,,,,,,,,,,,
-62,976,25,26,2117,612,93296,1216,22350660,53,624351,-111,-4224364,7049,,
,,,,,,,,,,,,,,,
-71,969,8,-525,682,621,93308,1217,22350680,53,624351,-111,-4224360,7049,,
,,,,,,,,,,,,,,,
-72,980,17,-35,1347,595,93313,1218,22350700,53,624352,-111,-4224359,7049,,
,,,,,,,,,,,,,,,
-53,951,21,-525,1338,638,93306,1218,22350720,53,624354,-111,-4224359,7049,,
,,,,,,,,,,,,,,,
-57,979,2,17,1120,437,93316,1219,22350760,53,624355,-111,-4224357,7049,,
,,,,,,,,,,,,,,,
-66,970,13,-376,1163,726,93314,1220,22350780,53,624355,-111,-4224356,7049,,
,,,,,,,,,,,,,,,
-57,943,0,-411,1610,595,93309,1219,22350800,53,624356,-111,-4224354,7050,,
,,,,,,,,,,,,,,,
-60,973,20,-183,1365,560,93298,1220,22350820,53,624356,-111,-4224353,7050,,
,,,,,,,,,,,,,,,
-51,972,-2,-630,1128,551,93297,1220,22350860,53,624359,-111,-4224351,7050,,
,,,,,,,,,,,,,,,
-55,966,10,-26,1995,507,93310,1220,22350880,53,624359,-111,-4224350,7050,,
,,,,,,,,,,,,,,,
-67,959,8,-621,1085,726,93306,1222,22350900,53,624359,-111,-4224349,7050,,
,,,,,,,,,,,,,,,
-59,975,19,-35,1785,638,93317,1222,22350920,53,624359,-111,-4224346,7050,,
,,,,,,,,,,,,,,,
-70,963,31,-717,-192,428,93302,1222,22350960,53,624362,-111,-4224344,7050,,
,,,,,,,,,,,,,,,
-59,969,0,-96,1268,778,93311,1223,22350980,53,624362,-111,-4224344,7051,,
,,,,,,,,,,,,,,,
-51,977,16,-481,1050,700,93309,1224,22351000,53,624363,-111,-4224343,7051,,
,,,,,,,,,,,,,,,
-43,953,-17,-87,1758,525,93302,1223,22351020,53,624363,-111,-4224340,7051,,
,,,,,,,,,,,,,,,
-46,983,16,-332,1461,621,93310,1224,22351060,53,624366,-111,-4224338,7051,,
,,,,,,,,,,,,,,,
-44,963,-3,-288,1058,560,93314,1224,22351080,53,624366,-111,-4224337,7051,,
,,,,,,,,,,,,,,,
-66,967,18,-26,1627,612,93299,1225,22351100,53,624366,-111,-4224337,7051,,
,,,,,,,,,,,,,,,
-54,980,5,-586,1452,621,93301,1226,22351120,53,624365,-111,-4224335,7052,,
,,,,,,,,,,,,,,,
-62,964,17,-78,1058,428,93302,1226,22351160,53,624365,-111,-4224330,7052,,
,,,,,,,,,,,,,,,
-60,961,0,-560,1163,638,93316,1227,22351180,53,624365,-111,-4224330,7052,,
,,,,,,,,,,,,,,,
-55,983,9,-61,1592,560,93315,1229,22351200,53,624363,-111,-4224329,7052,,
,,,,,,,,,,,,,,,
-60,964,10,-568,927,463,93305,1228,22351220,53,624363,-111,-4224328,7052,,
,,,,,,,,,,,,,,,
-62,965,2,-140,1251,481,93316,1229,22351260,53,624366,-111,-4224324,7053,,
,,,,,,,,,,,,,,,
-47,988,29,-393,1190,516,93302,1228,22351280,53,624366,-111,-4224323,7053,,
,,,,,,,,,,,,,,,
-55,954,-5,-122,1120,647,93307,1229,22351300,53,624366,-111,-4224321,7053,,
,,,,,,,,,,,,,,,
-56,964,29,-148,1995,630,93318,1230,22351320,53,624366,-111,-4224318,7053,,
,,,,,,,,,,,,,,,
-61,966,-9,-367,-122,516,93302,1231,22351360,53,624367,-111,-4224315,7053,,
,,,,,,,,,,,,,,,
-65,976,20,-96,1181,612,93306,1231,22351380,53,624369,-111,-4224314,7053,,
,,,,,,,,,,,,,,,
-48,981,11,-638,446,595,93307,1232,22351400,53,624369,-111,-4224314,7053,,
,,,,,,,,,,,,,,,
-64,963,9,70,1715,560,93305,1233,22351420,53,624370,-111,-4224311,7053,,
,,,,,,,,,,,,,,,
-54,969,25,-691,1163,586,93307,1234,22351460,53,624370,-111,-4224309,7053,,
,,,,,,,,,,,,,,,
-57,964,1,70,1610,630,93311,1234,22351480,53,624372,-111,-4224308,7053,,
,,,,,,,,,,,,,,,
-59,998,13,-630,1198,708,93306,1233,22351500,53,624372,-111,-4224308,7053,,
,,,,,,,,,,,,,,,
-65,970,-5,-350,761,560,93300,1234,22351520,53,624372,-111,-4224304,7053,,
,,,,,,,,,,,,,,,
-57,960,12,201,1566,603,93310,1235,22351560,53,624373,-111,-4224301,7053,,
,,,,,,,,,,,,,,,
-47,964,0,-586,455,708,93316,1236,22351580,53,624373,-111,-4224301,7054,,
,,,,,,,,,,,,,,,
-57,976,5,70,2467,542,93317,1236,22351600,53,624373,-111,-4224301,7054,,
,,,,,,,,,,,,,,,
-68,995,24,-463,131,638,93299,1236,22351620,53,624372,-111,-4224301,7054,,
,,,,,,,,,,,,,,,
-62,965,-10,113,472,603,93302,1237,22351660,53,624373,-111,-4224298,7054,,
,,,,,,,,,,,,,,,
-58,958,30,-525,2047,516,93323,1237,22351680,53,624373,-111,-4224296,7054,,
,,,,,,,,,,,,,,,
-56,983,1,-358,770,621,93312,1238,22351700,53,624373,-111,-4224294,7054,,
,,,,,,,,,,,,,,,
-56,958,16,-17,1470,665,93313,1239,22351720,53,624373,-111,-4224293,7054,,
,,,,,,,,,,,,,,,
-62,974,-4,-630,1671,595,93317,1239,22351760,53,624373,-111,-4224289,7054,,
,,,,,,,,,,,,,,,
-66,964,8,61,1356,595,93316,1240,22351780,53,624373,-111,-4224287,7054,,
,,,,,,,,,,,,,,,
-52,963,13,-551,1268,595,93302,1239,22351800,53,624373,-111,-4224285,7054,,
,,,,,,,,,,,,,,,
-61,972,0,-17,883,516,93305,1241,22351820,53,624372,-111,-4224282,7054,,
,,,,,,,,,,,,,,,
-52,972,12,-393,1496,516,93299,1242,22351860,53,624372,-111,-4224279,7054,,
,,,,,,,,,,,,,,,
-62,966,2,-70,1443,612,93310,1241,22351880,53,624373,-111,-4224278,7054,,
,,,,,,,,,,,,,,,
-63,967,17,-236,1443,787,93307,1242,22351900,53,624373,-111,-4224277,7054,,
,,,,,,,,,,,,,,,
-62,975,8,-332,1155,551,93308,1242,22351920,53,624372,-111,-4224275,7054,,
,,,,,,,,,,,,,,,
-60,966,11,-402,1601,551,93308,1242,22351960,53,624373,-111,-4224273,7054,,
,,,,,,,,,,,,,,,
-44,958,6,-227,-5512,446,93302,1243,22351980,53,624373,-111,-4224273,7055,,
,,,,,,,,,,,,,,,
-26,972,85,26,-183,358,93319,1244,22352000,53,624372,-111,-4224271,7055,,
,,,,,,,,,,,,,,,
-31,969,-65,-551,-1811,726,93304,1244,22352020,53,624372,-111,-4224268,7055,,
,,,,,,,,,,,,,,,
-55,986,1,166,2038,498,93308,1244,22352060,53,624370,-111,-4224265,7055,,
,,,,,,,,,,,,,,,
-54,939,16,-673,1181,726,93315,1245,22352080,53,624370,-111,-4224264,7055,,
,,,,,,,,,,,,,,,
-57,980,-5,-218,1251,542,93310,1245,22352100,53,624370,-111,-4224262,7055,,
,,,,,,,,,,,,,,,
-51,982,21,-306,1697,682,93312,1246,22352120,53,624372,-111,-4224260,7055,,
,,,,,,,,,,,,,,,
-57,960,-4,-420,1085,656,93300,1246,22352160,53,624372,-111,-4224257,7055,,
,,,,,,,,,,,,,,,
-60,964,15,0,1496,673,93316,1249,22352180,53,624373,-111,-4224257,7055,,
,,,,,,,,,,,,,,,
-60,961,0,-621,971,560,93301,1247,22352200,53,624373,-111,-4224256,7055,,
,,,,,,,,,,,,,,,
-57,975,15,-26,1715,603,93299,1249,22352220,53,624373,-111,-4224255,7055,,
,,,,,,,,,,,,,,,
-57,958,6,-428,1426,612,93318,1250,22352260,53,624376,-111,-4224251,7055,,
,,,,,,,,,,,,,,,
-55,966,8,43,1548,682,93292,1249,22352280,53,624376,-111,-4224250,7055,,
,,,,,,,,,,,,,,,
-65,971,9,-621,691,525,93313,1250,22352300,53,624377,-111,-4224248,7055,,
,,,,,,,,,,,,,,,
-63,958,3,26,1548,656,93308,1251,22352320,53,624376,-111,-4224245,7055,,
,,,,,,,,,,,,,,,
-54,967,5,-236,1251,630,93302,1250,22352360,53,624377,-111,-4224242,7054,,
,,,,,,,,,,,,,,,
-56,972,0,-455,1181,402,93299,1251,22352380,53,624377,-111,-4224241,7054,,
,,,,,,,,,,,,,,,
-52,971,9,-70,1417,717,93314,1252,22352400,53,624377,-111,-4224241,7054,,
,,,,,,,,,,,,,,,
-59,974,2,-542,1181,516,93298,1252,22352420,53,624377,-111,-4224239,7054,,
,,,,,,,,,,,,,,,
-70,959,11,8,2380,665,93303,1253,22352460,53,624377,-111,-4224238,7055,,
,,,,,,,,,,,,,,,
-56,965,16,-621,1391,481,93312,1253,22352480,53,624377,-111,-4224237,7055,,
,,,,,,,,,,,,,,,
-61,962,-6,105,1006,708,93297,1254,22352500,53,624377,-111,-4224236,7055,,
,,,,,,,,,,,,,,,
-67,969,14,-481,621,568,93310,1254,22352520,53,624377,-111,-4224236,7055,,
,,,,,,,,,,,,,,,
-49,970,-5,-297,1601,647,93312,1255,22352560,53,624377,-111,-4224234,7055,,
,,,,,,,,,,,,,,,
-65,961,13,78,1741,560,93312,1255,22352580,53,624379,-111,-4224232,7055,,
,,,,,,,,,,,,,,,
-10,969,5,-822,1373,761,93315,1257,22352600,53,624380,-111,-4224231,7055,,
,,,,,,,,,,,,,,,
-50,969,13,271,1610,708,93307,1257,22352620,53,624380,-111,-4224229,7055,,
,,,,,,,,,,,,,,,
-84,975,31,-770,-131,560,93303,1257,22352660,53,624380,-111,-4224227,7055,,
,,,,,,,,,,,,,,,
-53,972,-21,-96,1321,717,93301,1258,22352680,53,624380,-111,-4224224,7054,,
,,,,,,,,,,,,,,,
-75,969,1,70,1802,402,93314,1258,22352700,53,624380,-111,-4224224,7055,,
,,,,,,,,,,,,,,,
-38,964,-21,-866,691,910,93302,1258,22352720,53,624379,-111,-4224222,7054,,
,,,,,,,,,,,,,,,
-19,955,49,271,2056,393,93299,1259,22352760,53,624379,-111,-4224220,7054,,
,,,,,,,,,,,,,,,
-59,964,5,-1006,1198,1015,93308,1259,22352780,53,624379,-111,-4224219,7054,,
,,,,,,,,,,,,,,,
-92,969,19,472,1400,708,93301,1260,22352800,53,624377,-111,-4224216,7054,,
,,,,,,,,,,,,,,,
10,1001,74,-1443,1645,665,93310,1260,22352820,53,624377,-111,-4224217,7054,,
,,,,,,,,,,,,,,,
-63,980,0,376,2397,507,93307,1261,22352860,53,624377,-111,-4224217,7054,,
,,,,,,,,,,,,,,,
-60,977,30,-1015,1015,621,93306,1262,22352880,53,624377,-111,-4224216,7054,,
,,,,,,,,,,,,,,,
-46,962,-5,-183,1697,472,93326,1262,22352900,53,624377,-111,-4224216,7054,,
,,,,,,,,,,,,,,,
-71,975,25,87,1417,743,93305,1262,22352920,53,624377,-111,-4224216,7054,,
,,,,,,,,,,,,,,,
-42,953,-27,-586,1172,481,93311,1263,22352960,53,624374,-111,-4224215,7054,,
,,,,,,,,,,,,,,,
-65,979,26,376,1443,446,93310,1264,22352980,53,624374,-111,-4224215,7054,,
,,,,,,,,,,,,,,,
-63,971,92,-918,-306,638,93305,1264,22353000,53,624374,-111,-4224215,7054,,
,,,,,,,,,,,,,,,
-48,960,2,393,1216,700,93305,1264,22353020,53,624373,-111,-4224216,7054,,
,,,,,,,,,,,,,,,
-93,969,27,-621,1260,682,93303,1265,22353060,53,624373,-111,-4224216,7055,,
,,,,,,,,,,,,,,,
-49,964,2,-26,1671,621,93316,1265,22353080,53,624373,-111,-4224216,7055,,
,,,,,,,,,,,,,,,
-46,961,21,-297,481,463,93309,1267,22353100,53,624373,-111,-4224217,7055,,
,,,,,,,,,,,,,,,
-55,975,5,-490,1260,717,93305,1267,22353120,53,624373,-111,-4224217,7055,,
,,,,,,,,,,,,,,,
-58,967,31,96,1347,787,93311,1268,22353160,53,624373,-111,-4224220,7056,,
,,,,,,,,,,,,,,,
-60,964,4,-542,1662,586,93308,1268,22353180,53,624373,-111,-4224221,7056,,
,,,,,,,,,,,,,,,
-53,971,12,210,1758,525,93307,1268,22353200,53,624373,-111,-4224220,7057,,
,,,,,,,,,,,,,,,
-60,967,10,-717,936,542,93304,1268,22353220,53,624373,-111,-4224220,7057,,
,,,,,,,,,,,,,,,
-65,963,1,87,1496,516,93297,1269,22353260,53,624373,-111,-4224221,7057,,
,,,,,,,,,,,,,,,
-53,972,8,-638,1277,673,93308,1270,22353280,53,624372,-111,-4224221,7057,,
,,,,,,,,,,,,,,,
-58,967,-3,-8,1443,542,93304,1271,22353300,53,624373,-111,-4224221,7057,,
,,,,,,,,,,,,,,,
-65,977,22,-236,1356,708,93305,1271,22353320,53,624370,-111,-4224220,7057,,
,,,,,,,,,,,,,,,
-57,966,-1,-253,1198,568,93306,1271,22353360,53,624369,-111,-4224220,7058,,
,,,,,,,,,,,,,,,
-60,967,12,-96,1575,551,93304,1272,22353380,53,624370,-111,-4224220,7058,,
,,,,,,,,,,,,,,,
-57,966,0,-516,1155,656,93304,1272,22353400,53,624370,-111,-4224220,7058,,
,,,,,,,,,,,,,,,
-57,972,10,192,1548,516,93314,1273,22353420,53,624370,-111,-4224220,7058,,
,,,,,,,,,,,,,,,
-71,970,9,-717,1146,455,93306,1274,22353460,53,624370,-111,-4224222,7058,,
,,,,,,,,,,,,,,,
-51,969,3,61,1435,560,93302,1274,22353480,53,624370,-111,-4224222,7058,,
,,,,,,,,,,,,,,,
-59,968,11,-586,1207,525,93300,1275,22353500,53,624369,-111,-4224222,7058,,
,,,,,,,,,,,,,,,
-60,965,0,-113,1435,647,93297,1275,22353520,53,624369,-111,-4224224,7059,,
,,,,,,,,,,,,,,,
-58,966,21,-280,1461,621,93307,1276,22353560,53,624366,-111,-4224226,7059,,
,,,,,,,,,,,,,,,
-62,965,0,-315,1356,630,93307,1276,22353580,53,624366,-111,-4224226,7059,,
,,,,,,,,,,,,,,,
-60,966,14,-113,1557,630,93307,1276,22353600,53,624365,-111,-4224226,7059,,
,,,,,,,,,,,,,,,
-56,969,0,-568,1356,560,93313,1277,22353620,53,624365,-111,-4224226,7059,,
,,,,,,,,,,,,,,,
-60,965,10,-70,1557,568,93306,1278,22353660,53,624365,-111,-4224226,7060,,
,,,,,,,,,,,,,,,
-57,966,5,-525,1111,638,93314,1278,22353680,53,624363,-111,-4224224,7060,,
,,,,,,,,,,,,,,,
-58,969,5,113,1540,542,93316,1278,22353700,53,624363,-111,-4224224,7060,,
,,,,,,,,,,,,,,,
-58,969,8,-568,1303,603,93321,1279,22353720,53,624363,-111,-4224223,7059,,
,,,,,,,,,,,,,,,
-53,966,2,0,1496,612,93311,1280,22353760,53,624362,-111,-4224223,7059,,
,,,,,,,,,,,,,,,
-62,969,16,-271,1242,516,93311,1280,22353780,53,624362,-111,-4224227,7060,,
,,,,,,,,,,,,,,,
-57,965,-2,-253,1225,577,93308,1281,22353800,53,624362,-111,-4224227,7060,,
,,,,,,,,,,,,,,,
-59,968,16,-105,1513,603,93317,1281,22353820,53,624362,-111,-4224227,7060,,
,,,,,,,,,,,,,,,
-58,966,-1,-385,1286,525,93317,1283,22353860,53,624362,-111,-4224227,7060,,
,,,,,,,,,,,,,,,
-59,966,13,35,1408,472,93307,1282,22353880,53,624362,-111,-4224226,7060,,
,,,,,,,,,,,,,,,
-57,963,2,-490,1268,551,93313,1283,22353900,53,624362,-111,-4224226,7060,,
,,,,,,,,,,,,,,,
-57,966,6,-26,1470,638,93304,1283,22353920,53,624362,-111,-4224227,7060,,
,,,,,,,,,,,,,,,
-59,967,8,-446,1225,638,93315,1285,22353960,53,624361,-111,-4224226,7060,,
,,,,,,,,,,,,,,,
-60,966,3,-35,1373,551,93310,1284,22353980,53,624362,-111,-4224226,7060,,
,,,,,,,,,,,,,,,
-58,969,10,-411,1233,717,93314,1284,22354000,53,624362,-111,-4224226,7060,,
,,,,,,,,,,,,,,,
-57,966,0,-61,1452,647,93296,1286,22354020,53,624361,-111,-4224226,7060,,
,,,,,,,,,,,,,,,
-63,969,12,-288,1400,691,93321,1286,22354060,53,624359,-111,-4224226,7060,,
,,,,,,,,,,,,,,,
-57,968,0,-393,1365,525,93306,1287,22354080,53,624358,-111,-4224226,7061,,
,,,,,,,,,,,,,,,
-56,965,16,2170,1443,560,93306,1287,22354100,53,624356,-111,-4224226,7061,,
,,,,,,,,,,,,,,,
-59,967,1,-420,1172,577,93314,1288,22354120,53,624356,-111,-4224224,7061,,
,,,,,,,,,,,,,,,
-56,969,5,-35,1522,560,93317,1288,22354160,53,624355,-111,-4224226,7061,,
,,,,,,,,,,,,,,,
-62,967,5,-455,1295,525,93309,1288,22354180,53,624355,-111,-4224226,7061,,
,,,,,,,,,,,,,,,
-57,968,4,87,1417,568,93301,1288,22354200,53,624355,-111,-4224226,7061,,
,,,,,,,,,,,,,,,
-56,966,8,-516,1181,516,93323,1291,22354220,53,624354,-111,-4224227,7061,,
,,,,,,,,,,,,,,,
-60,966,2,-253,1321,568,93307,1289,22354260,53,624352,-111,-4224227,7061,,
,,,,,,,,,,,,,,,
-60,969,13,-297,1443,551,93307,1289,22354280,53,624351,-111,-4224227,7061,,
,,,,,,,,,,,,,,,
-60,966,1,-297,1303,542,93298,1291,22354300,53,624351,-111,-4224227,7061,,
,,,,,,,,,,,,,,,
-61,968,12,-210,1505,586,93296,1292,22354320,53,624352,-111,-4224228,7062,,
,,,,,,,,,,,,,,,
-56,969,0,-367,1277,551,93301,1292,22354360,53,624351,-111,-4224229,7062,,
,,,,,,,,,,,,,,,
-58,969,10,-17,1312,498,93309,1292,22354380,53,624351,-111,-4224229,7062,,
,,,,,,,,,,,,,,,
-58,969,4,-560,1163,612,93308,1294,22354400,53,624351,-111,-4224229,7062,,
,,,,,,,,,,,,,,,
-58,969,5,-61,1522,568,93303,1293,22354420,53,624351,-111,-4224229,7062,,
,,,,,,,,,,,,,,,
-59,969,8,-507,1216,612,93311,1293,22354460,53,624351,-111,-4224229,7062,,
,,,,,,,,,,,,,,,
-58,969,5,0,1548,630,93309,1294,22354480,53,624351,-111,-4224230,7063,,
,,,,,,,,,,,,,,,
-60,970,8,-358,1207,472,93311,1295,22354500,53,624351,-111,-4224230,7063,,
,,,,,,,,,,,,,,,
-56,965,2,-96,1382,586,93302,1295,22354520,53,624351,-111,-4224231,7063,,
,,,,,,,,,,,,,,,
-55,967,11,-376,1207,656,93304,1296,22354560,53,624351,-111,-4224231,7063,,
,,,,,,,,,,,,,,,
-58,972,2,-332,1373,507,93309,1296,22354580,53,624349,-111,-4224232,7063,,
,,,,,,,,,,,,,,,
-62,967,9,-131,1461,691,93302,1297,22354600,53,624349,-111,-4224232,7063,,
,,,,,,,,,,,,,,,
-56,969,2,-350,1303,542,93309,1296,22354620,53,624349,-111,-4224234,7064,,
,,,,,,,,,,,,,,,
-58,966,9,-61,1356,612,93321,1298,22354660,53,624349,-111,-4224234,7064,,
,,,,,,,,,,,,,,,
-59,967,3,-350,1181,595,93313,1298,22354680,53,624349,-111,-4224234,7064,,
,,,,,,,,,,,,,,,
-58,966,8,-17,1575,603,93313,1298,22354700,53,624348,-111,-4224234,7064,,
,,,,,,,,,,,,,,,
-59,967,8,-393,1146,586,93301,1298,22354720,53,624348,-111,-4224235,7065,,
,,,,,,,,,,,,,,,
-58,967,2,-87,1400,621,93302,1299,22354760,53,624348,-111,-4224236,7065,,
,,,,,,,,,,,,,,,
-59,968,9,-262,1347,516,93303,1299,22354780,53,624348,-111,-4224235,7065,,
,,,,,,,,,,,,,,,
-59,970,2,-227,1443,682,93300,1300,22354800,53,624348,-111,-4224236,7065,,
,,,,,,,,,,,,,,,
-57,969,11,-332,1365,656,93310,1301,22354820,53,624348,-111,-4224235,7065,,
,,,,,,,,,,,,,,,
-57,968,3,-376,1120,525,93316,1302,22354860,53,624348,-111,-4224235,7065,,
,,,,,,,,,,,,,,,
-55,970,13,-122,1400,612,93299,1301,22354880,53,624349,-111,-4224234,7065,,
,,,,,,,,,,,,,,,
-57,969,5,-280,1233,533,93313,1302,22354900,53,624349,-111,-4224234,7065,,
,,,,,,,,,,,,,,,
-62,966,7,-70,1443,560,93297,1304,22354920,53,624349,-111,-4224235,7065,,
,,,,,,,,,,,,,,,
-60,966,6,-463,1365,577,93302,1304,22354960,53,624351,-111,-4224235,7065,,
,,,,,,,,,,,,,,,
-60,969,3,-148,1478,577,93313,1305,22354980,53,624351,-111,-4224235,7065,,
,,,,,,,,,,,,,,,
-61,969,10,-323,1470,638,93313,1305,22355000,53,624351,-111,-4224235,7065,,
,,,,,,,,,,,,,,,
-57,966,3,-148,1505,603,93309,1305,22355020,53,624351,-111,-4224235,7066,,
,,,,,,,,,,,,,,,
-59,966,12,-227,1303,507,93299,1307,22355060,53,624351,-111,-4224235,7066,,
,,,,,,,,,,,,,,,
-57,967,2,-341,1496,516,93310,1306,22355080,53,624351,-111,-4224235,7066,,
,,,,,,,,,,,,,,,
-59,968,11,-253,1347,603,93318,1307,22355100,53,624351,-111,-4224234,7066,,
,,,,,,,,,,,,,,,
-60,967,3,-393,1330,603,93309,1307,22355120,53,624351,-111,-4224235,7066,,
,,,,,,,,,,,,,,,
-57,965,8,-26,1382,612,93301,1307,22355160,53,624352,-111,-4224234,7066,,
,,,,,,,,,,,,,,,
-61,968,4,-393,1268,586,93320,1308,22355180,53,624352,-111,-4224235,7067,,
,,,,,,,,,,,,,,,
-60,967,5,-17,1426,603,93319,1308,22355200,53,624354,-111,-4224235,7067,,
,,,,,,,,,,,,,,,
-59,964,8,-350,1365,586,93321,1309,22355220,53,624352,-111,-4224235,7067,,
,,,,,,,,,,,,,,,
-57,969,3,-70,1435,586,93317,1309,22355260,53,624352,-111,-4224235,7067,,
,,,,,,,,,,,,,,,
-59,970,13,-306,1216,551,93307,1310,22355280,53,624352,-111,-4224234,7067,,
,,,,,,,,,,,,,,,
-57,969,3,-236,1435,612,93316,1310,22355300,53,624354,-111,-4224234,7067,,
,,,,,,,,,,,,,,,
-59,969,13,-323,1347,542,93312,1311,22355320,53,624354,-111,-4224234,7067,,
,,,,,,,,,,,,,,,
-57,966,2,-358,1391,516,93313,1311,22355360,53,624354,-111,-4224235,7067,,
,,,,,,,,,,,,,,,
-57,966,10,-140,1435,586,93314,1312,22355380,53,624355,-111,-4224235,7067,,
,,,,,,,,,,,,,,,
-60,966,5,-367,1268,551,93307,1312,22355400,53,624355,-111,-4224235,7067,,
,,,,,,,,,,,,,,,
-59,968,7,-113,1347,481,93306,1312,22355420,53,624355,-111,-4224234,7067,,
,,,,,,,,,,,,,,,
-58,967,7,-350,1286,586,93319,1314,22355460,53,624355,-111,-4224234,7067,,
,,,,,,,,,,,,,,,
-60,967,4,-96,1513,533,93309,1313,22355480,53,624355,-111,-4224232,7067,,
,,,,,,,,,,,,,,,
-57,964,10,-411,1382,595,93314,1314,22355500,53,624355,-111,-4224232,7067,,
,,,,,,,,,,,,,,,
-58,967,3,-192,1268,490,93314,1316,22355520,53,624356,-111,-4224234,7067,,
,,,,,,,,,,,,,,,
-56,964,8,-218,1408,568,93317,1315,22355560,53,624358,-111,-4224232,7067,,
,,,,,,,,,,,,,,,
-59,965,2,-245,1338,603,93309,1315,22355580,53,624359,-111,-4224232,7067,,
,,,,,,,,,,,,,,,
-59,970,6,-166,1312,577,93310,1316,22355600,53,624359,-111,-4224232,7067,,
,,,,,,,,,,,,,,,
-58,967,3,-385,1338,498,93304,1317,22355620,53,624359,-111,-4224232,7067,,
,,,,,,,,,,,,,,,
-60,972,6,-157,1443,673,93308,1317,22355660,53,624361,-111,-4224232,7067,,
,,,,,,,,,,,,,,,
-59,966,5,-341,1251,595,93326,1317,22355680,53,624362,-111,-4224232,7068,,
,,,,,,,,,,,,,,,
-57,968,5,-122,1531,577,93296,1317,22355700,53,624361,-111,-4224231,7068,,
,,,,,,,,,,,,,,,
-59,968,8,-306,1277,638,93310,1318,22355720,53,624361,-111,-4224231,7068,,
,,,,,,,,,,,,,,,
-60,969,5,-131,1347,446,93317,1319,22355760,53,624362,-111,-4224230,7068,,
,,,,,,,,,,,,,,,
-59,969,9,-315,1356,612,93305,1319,22355780,53,624362,-111,-4224230,7068,,
,,,,,,,,,,,,,,,
-57,968,2,-105,1356,577,93310,1320,22355800,53,624362,-111,-4224230,7068,,
,,,,,,,,,,,,,,,
-60,968,8,-157,1338,577,93312,1321,22355820,53,624363,-111,-4224231,7068,,
,,,,,,,,,,,,,,,
-58,966,2,-166,1513,682,93316,1321,22355860,53,624365,-111,-4224231,7068,,
,,,,,,,,,,,,,,,
-60,970,11,-192,1478,472,93316,1321,22355880,53,624365,-111,-4224231,7068,,
,,,,,,,,,,,,,,,
-58,968,3,-332,1400,560,93319,1323,22355900,53,624365,-111,-4224231,7068,,
,,,,,,,,,,,,,,,
-58,969,9,-105,1382,577,93315,1323,22355920,53,624365,-111,-4224230,7069,,
,,,,,,,,,,,,,,,
-57,968,4,-402,1207,603,93315,1324,22355960,53,624365,-111,-4224230,7068,,
,,,,,,,,,,,,,,,
-57,967,5,-52,1426,560,93305,1324,22355980,53,624366,-111,-4224230,7068,,
,,,,,,,,,,,,,,,
-61,969,7,-253,1356,647,93315,1324,22360000,53,624366,-111,-4224230,7068,,
,,,,,,,,,,,,,,,
-55,969,5,-78,1426,621,93308,1326,22360020,53,624366,-111,-4224230,7068,,
,,,,,,,,,,,,,,,
-60,964,10,-262,1426,586,93306,1325,22360060,53,624367,-111,-4224229,7068,,
,,,,,,,,,,,,,,,
-59,966,4,-253,1426,621,93316,1326,22360080,53,624369,-111,-4224229,7068,,
,,,,,,,,,,,,,,,
-57,969,8,-201,1435,612,93301,1327,22360100,53,624369,-111,-4224229,7068,,
,,,,,,,,,,,,,,,
-57,968,3,-245,1461,560,93306,1327,22360120,53,624369,-111,-4224229,7068,,
,,,,,,,,,,,,,,,
-58,968,8,-210,1426,603,93307,1327,22360160,53,624369,-111,-4224229,7068,,
,,,,,,,,,,,,,,,
-54,971,5,-210,1356,560,93328,1327,22360180,53,624370,-111,-4224229,7068,,
,,,,,,,,,,,,,,,
-60,964,7,-166,1470,595,93296,1328,22360200,53,624370,-111,-4224229,7068,,
,,,,,,,,,,,,,,,
-58,967,5,-323,1373,568,93304,1328,22360220,53,624372,-111,-4224229,7068,,
,,,,,,,,,,,,,,,
-60,968,5,-192,1373,577,93297,1329,22360260,53,624373,-111,-4224229,7068,,
,,,,,,,,,,,,,,,
-57,969,8,-323,1260,516,93315,1330,22360280,53,624373,-111,-4224227,7068,,
,,,,,,,,,,,,,,,
-57,967,4,-122,1435,595,93316,1330,22360300,53,624374,-111,-4224226,7068,,
,,,,,,,,,,,,,,,
-60,966,11,-192,1295,481,93317,1330,22360320,53,624374,-111,-4224226,7067,,
,,,,,,,,,,,,,,,
-60,969,3,-306,1408,595,93317,1330,22360360,53,624377,-111,-4224224,7067,,
,,,,,,,,,,,,,,,
-57,965,9,-236,1330,455,93312,1332,22360380,53,624377,-111,-4224223,7067,,
,,,,,,,,,,,,,,,
-59,969,5,-227,1391,603,93305,1333,22360400,53,624379,-111,-4224223,7067,,
,,,,,,,,,,,,,,,
-62,969,5,-131,1400,577,93296,1332,22360420,53,624380,-111,-4224223,7066,,
,,,,,,,,,,,,,,,
-58,966,5,-367,1321,577,93314,1333,22360460,53,624380,-111,-4224222,7066,,
,,,,,,,,,,,,,,,
-58,969,5,-131,1400,542,93306,1333,22360480,53,624381,-111,-4224221,7065,,
,,,,,,,,,,,,,,,
-57,967,7,-315,1461,612,93310,1333,22360500,53,624383,-111,-4224220,7065,,
,,,,,,,,,,,,,,,
-59,968,5,-175,1487,516,93309,1335,22360520,53,624384,-111,-4224220,7065,,
,,,,,,,,,,,,,,,
-58,969,7,-402,1408,577,93313,1335,22360560,53,624384,-111,-4224220,7065,,
,,,,,,,,,,,,,,,
-57,969,2,-236,1190,463,93315,1336,22360580,53,624384,-111,-4224220,7065,,
,,,,,,,,,,,,,,,
-56,964,9,-210,1356,533,93327,1335,22360600,53,624384,-111,-4224220,7065,,
,,,,,,,,,,,,,,,
-56,968,5,-253,1330,586,93306,1335,22360620,53,624384,-111,-4224219,7065,,
,,,,,,,,,,,,,,,
-57,969,10,-245,1496,490,93301,1337,22360660,53,624384,-111,-4224217,7064,,
,,,,,,,,,,,,,,,
-57,969,3,-236,1373,560,93311,1338,22360680,53,624384,-111,-4224215,7064,,
,,,,,,,,,,,,,,,
-56,968,8,-122,1470,612,93315,1338,22360700,53,624384,-111,-4224215,7064,,
,,,,,,,,,,,,,,,
-57,966,7,-306,1373,551,93312,1338,22360720,53,624384,-111,-4224215,7063,,
,,,,,,,,,,,,,,,
-61,968,5,-262,1408,525,93326,1339,22360760,53,624385,-111,-4224215,7063,,
,,,,,,,,,,,,,,,
-57,966,7,-358,1312,612,93319,1339,22360780,53,624387,-111,-4224213,7062,,
,,,,,,,,,,,,,,,
-60,967,5,-175,1452,612,93315,1339,22360800,53,624387,-111,-4224213,7062,,
,,,,,,,,,,,,,,,
-58,964,5,-201,1365,595,93303,1340,22360820,53,624387,-111,-4224212,7062,,
,,,,,,,,,,,,,,,
-57,969,3,-350,1295,586,93322,1342,22360860,53,624387,-111,-4224209,7061,,
,,,,,,,,,,,,,,,
-57,969,10,-166,1260,525,93312,1340,22360880,53,624387,-111,-4224208,7061,,
,,,,,,,,,,,,,,,
-57,968,5,-218,1400,577,93320,1343,22360900,53,624387,-111,-4224208,7060,,
,,,,,,,,,,,,,,,
-57,969,9,-113,1356,595,93317,1343,22360920,53,624387,-111,-4224207,7060,,
,,,,,,,,,,,,,,,
-57,967,5,-253,1382,516,93308,1343,22360960,53,624387,-111,-4224206,7059,,
,,,,,,,,,,,,,,,
-56,967,7,-218,1382,525,93308,1343,22360980,53,624387,-111,-4224205,7059,,
,,,,,,,,,,,,,,,
-58,964,7,-367,1373,516,93318,1344,22361000,53,624388,-111,-4224203,7058,,
,,,,,,,,,,,,,,,
-58,969,5,-166,1470,603,93311,1345,22361020,53,624390,-111,-4224202,7058,,
,,,,,,,,,,,,,,,
-57,969,7,-271,1251,586,93319,1345,22361060,53,624390,-111,-4224201,7057,,
,,,,,,,,,,,,,,,
-60,965,3,-175,1461,560,93304,1345,22361080,53,624391,-111,-4224200,7056,,
,,,,,,,,,,,,,,,
-59,969,8,-288,1443,568,93318,1346,22361100,53,624391,-111,-4224200,7056,,
,,,,,,,,,,,,,,,
-58,969,2,-166,1365,542,93311,1347,22361120,53,624391,-111,-4224199,7055,,
,,,,,,,,,,,,,,,
-59,969,6,-148,1338,516,93321,1348,22361160,53,624392,-111,-4224198,7054,,
,,,,,,,,,,,,,,,
-56,970,5,-280,1268,551,93316,1347,22361180,53,624392,-111,-4224198,7054,,
,,,,,,,,,,,,,,,
-60,970,10,-183,1443,586,93311,1349,22361200,53,624395,-111,-4224196,7054,,
,,,,,,,,,,,,,,,
-57,967,5,-411,1391,568,93317,1348,22361220,53,624395,-111,-4224195,7053,,
,,,,,,,,,,,,,,,
-59,967,5,-96,1566,516,93307,1349,22361260,53,624398,-111,-4224193,7052,,
,,,,,,,,,,,,,,,
-58,969,6,-367,1365,525,93312,1349,22361280,53,624398,-111,-4224193,7052,,
,,,,,,,,,,,,,,,
-59,964,5,-96,1461,621,93308,1349,22361300,53,624399,-111,-4224193,7051,,
,,,,,,,,,,,,,,,
-57,966,5,-358,1295,542,93318,1350,22361320,53,624399,-111,-4224192,7051,,
,,,,,,,,,,,,,,,
-61,966,4,-262,1365,472,93315,1351,22361360,53,624402,-111,-4224192,7050,,
,,,,,,,,,,,,,,,
-58,966,7,-236,1303,603,93315,1351,22361380,53,624402,-111,-4224192,7049,,
,,,,,,,,,,,,,,,
-54,967,4,-166,1356,551,93318,1352,22361400,53,624403,-111,-4224192,7049,,
,,,,,,,,,,,,,,,
-58,970,8,-43,1583,551,93309,1352,22361420,53,624405,-111,-4224192,7048,,
,,,,,,,,,,,,,,,
-57,966,5,-210,1295,542,93315,1353,22361460,53,624405,-111,-4224193,7047,,
,,,,,,,,,,,,,,,
-58,970,7,-61,1338,551,93311,1353,22361480,53,624406,-111,-4224192,7046,,
,,,,,,,,,,,,,,,
-57,969,3,-192,1373,551,93307,1353,22361500,53,624408,-111,-4224192,7046,,
,,,,,,,,,,,,,,,
-58,966,5,-192,1478,446,93313,1354,22361520,53,624408,-111,-4224192,7046,,
,,,,,,,,,,,,,,,
-57,966,7,-288,1373,577,93310,1354,22361560,53,624410,-111,-4224192,7045,,
,,,,,,,,,,,,,,,
-60,966,4,-280,1382,551,93305,1354,22361580,53,624410,-111,-4224192,7044,,
,,,,,,,,,,,,,,,
-60,966,10,-201,1321,533,93304,1355,22361600,53,624410,-111,-4224192,7044,,
,,,,,,,,,,,,,,,
-59,966,5,-236,1461,577,93321,1356,22361620,53,624412,-111,-4224191,7043,,
,,,,,,,,,,,,,,,
-58,967,8,-245,1338,560,93307,1355,22361660,53,624412,-111,-4224192,7043,,
,,,,,,,,,,,,,,,
-60,966,4,-262,1356,603,93319,1357,22361680,53,624413,-111,-4224192,7042,,
,,,,,,,,,,,,,,,
-58,969,6,-131,1513,630,93311,1357,22361700,53,624413,-111,-4224192,7042,,
,,,,,,,,,,,,,,,
-57,966,4,-183,1347,603,93313,1358,22361720,53,624413,-111,-4224193,7042,,
,,,,,,,,,,,,,,,
-57,969,7,-236,1478,463,93307,1357,22361760,53,624413,-111,-4224193,7041,,
,,,,,,,,,,,,,,,
-59,966,5,-271,1382,586,93303,1359,22361780,53,624413,-111,-4224193,7041,,
,,,,,,,,,,,,,,,
-59,968,7,-105,1443,498,93301,1358,22361800,53,624413,-111,-4224193,7040,,
,,,,,,,,,,,,,,,
-58,964,7,-280,1505,498,93308,1359,22361820,53,624413,-111,-4224193,7040,,
,,,,,,,,,,,,,,,
-57,971,4,-183,1470,533,93319,1359,22361860,53,624415,-111,-4224193,7039,,
,,,,,,,,,,,,,,,
-60,966,7,-218,1461,551,93317,1360,22361880,53,624416,-111,-4224193,7039,,
,,,,,,,,,,,,,,,
-57,969,4,-297,1382,542,93304,1360,22361900,53,624415,-111,-4224193,7038,,
,,,,,,,,,,,,,,,
-57,967,5,-201,1382,630,93310,1361,22361920,53,624416,-111,-4224194,7038,,
,,,,,,,,,,,,,,,
-59,968,4,-280,1487,542,93325,1362,22361960,53,624416,-111,-4224194,7037,,
,,,,,,,,,,,,,,,
-59,967,5,-122,1330,568,93313,1363,22361980,53,624416,-111,-4224195,7037,,
,,,,,,,,,,,,,,,
-56,967,5,-341,1338,551,93305,1363,22362000,53,624416,-111,-4224195,7036,,
,,,,,,,,,,,,,,,
-54,969,8,-78,1426,560,93300,1363,22362020,53,624416,-111,-4224195,7036,,
,,,,,,,,,,,,,,,
-57,968,6,-350,1303,551,93317,1363,22362060,53,624416,-111,-4224195,7035,,
,,,,,,,,,,,,,,,
-54,969,6,-148,1251,402,93308,1365,22362080,53,624416,-111,-4224196,7035,,
,,,,,,,,,,,,,,,
-57,967,5,-393,1443,533,93313,1365,22362100,53,624416,-111,-4224198,7035,,
,,,,,,,,,,,,,,,
-57,966,3,-148,1382,498,93307,1366,22362120,53,624416,-111,-4224198,7035,,
,,,,,,,,,,,,,,,
-60,968,8,-262,1400,533,93316,1366,22362160,53,624416,-111,-4224198,7034,,
,,,,,,,,,,,,,,,
-58,968,3,-175,1365,551,93312,1366,22362180,53,624416,-111,-4224198,7033,,
,,,,,,,,,,,,,,,
-59,966,8,-131,1470,568,93317,1367,22362200,53,624416,-111,-4224199,7033,,
,,,,,,,,,,,,,,,
-59,970,2,-332,1417,603,93317,1367,22362220,53,624416,-111,-4224199,7033,,
,,,,,,,,,,,,,,,
-57,966,8,-192,1452,595,93318,1367,22362260,53,624416,-111,-4224200,7032,,
,,,,,,,,,,,,,,,
-57,966,5,-306,1321,568,93315,1368,22362280,53,624416,-111,-4224200,7032,,
,,,,,,,,,,,,,,,
-58,965,7,-131,1373,577,93312,1368,22362300,53,624417,-111,-4224200,7031,,
,,,,,,,,,,,,,,,
-58,967,6,-271,1382,551,93308,1368,22362320,53,624419,-111,-4224200,7031,,
,,,,,,,,,,,,,,,
-57,965,5,-105,1548,568,93310,1370,22362360,53,624420,-111,-4224202,7030,,
,,,,,,,,,,,,,,,
-60,968,8,-78,1443,516,93311,1370,22362380,53,624420,-111,-4224201,7030,,
,,,,,,,,,,,,,,,
-56,968,3,-236,1443,525,93306,1370,22362400,53,624420,-111,-4224201,7029,,
,,,,,,,,,,,,,,,
-56,969,9,-157,1470,630,93309,1371,22362420,53,624421,-111,-4224201,7028,,
,,,,,,,,,,,,,,,
-58,966,5,-131,1513,586,93321,1371,22362460,53,624421,-111,-4224200,7027,,
,,,,,,,,,,,,,,,
-60,968,6,-227,1426,586,93305,1371,22362480,53,624421,-111,-4224202,7027,,
,,,,,,,,,,,,,,,
-57,971,3,-183,1505,586,93316,1372,22362500,53,624421,-111,-4224203,7026,,
,,,,,,,,,,,,,,,
-60,968,5,-175,1487,525,93311,1372,22362520,53,624421,-111,-4224203,7026,,
,,,,,,,,,,,,,,,
-58,969,8,-236,1470,498,93308,1373,22362560,53,624423,-111,-4224206,7025,,
,,,,,,,,,,,,,,,
-57,968,6,-175,1478,612,93317,1373,22362580,53,624423,-111,-4224207,7024,,
,,,,,,,,,,,,,,,
-60,966,5,-236,1330,612,93310,1374,22362600,53,624426,-111,-4224207,7024,,
,,,,,,,,,,,,,,,
-56,966,5,-183,1321,525,93307,1374,22362620,53,624424,-111,-4224207,7023,,
,,,,,,,,,,,,,,,
-57,969,8,-358,1295,612,93298,1374,22362660,53,624424,-111,-4224207,7021,,
,,,,,,,,,,,,,,,
-58,966,5,-306,1365,586,93308,1375,22362680,53,624426,-111,-4224207,7021,,
,,,,,,,,,,,,,,,
-62,967,10,-122,1408,455,93310,1376,22362700,53,624427,-111,-4224208,7021,,
,,,,,,,,,,,,,,,
-57,969,2,-166,1452,551,93323,1376,22362720,53,624427,-111,-4224208,7020,,
,,,,,,,,,,,,,,,
-57,966,7,-148,1566,551,93304,1377,22362760,53,624428,-111,-4224212,7020,,
,,,,,,,,,,,,,,,
-55,969,5,-218,1408,665,93300,1377,22362780,53,624430,-111,-4224213,7019,,
,,,,,,,,,,,,,,,
-63,966,8,-166,1435,516,93312,1377,22362800,53,624430,-111,-4224212,7019,,
,,,,,,,,,,,,,,,
-59,969,5,-201,1268,507,93310,1378,22362820,53,624430,-111,-4224213,7018,,
,,,,,,,,,,,,,,,
-58,967,5,-166,1513,586,93313,1377,22362860,53,624430,-111,-4224214,7017,,
,,,,,,,,,,,,,,,
-57,965,8,-140,1391,533,93312,1379,22362880,53,624428,-111,-4224215,7017,,
,,,,,,,,,,,,,,,
-55,966,5,-315,1330,603,93316,1379,22362900,53,624428,-111,-4224216,7017,,
,,,,,,,,,,,,,,,
-59,970,8,-78,1382,507,93318,1380,22362920,53,624430,-111,-4224217,7017,,
,,,,,,,,,,,,,,,
-58,969,2,-245,1548,533,93301,1380,22362960,53,624431,-111,-4224219,7016,,
,,,,,,,,,,,,,,,
-55,967,5,-262,1461,612,93319,1380,22362980,53,624431,-111,-4224220,7015,,
,,,,,,,,,,,,,,,
-56,966,6,-262,1382,525,93306,1380,22363000,53,624431,-111,-4224221,7015,,
,,,,,,,,,,,,,,,
-57,965,7,-253,1356,463,93326,1381,22363020,53,624433,-111,-4224221,7014,,
,,,,,,,,,,,,,,,
-56,971,5,-227,1391,595,93307,1383,22363060,53,624434,-111,-4224222,7014,,
,,,,,,,,,,,,,,,
-57,969,8,-70,1566,551,93307,1383,22363080,53,624434,-111,-4224222,7014,,
,,,,,,,,,,,,,,,
-57,965,4,-148,1452,630,93302,1383,22363100,53,624434,-111,-4224222,7013,,
,,,,,,,,,,,,,,,
-59,967,4,-166,1566,595,93318,1385,22363120,53,624434,-111,-4224222,7013,,
,,,,,,,,,,,,,,,
-57,966,9,-35,1356,577,93313,1384,22363160,53,624434,-111,-4224223,7012,,
,,,,,,,,,,,,,,,
-58,967,5,-227,1557,560,93309,1385,22363180,53,624434,-111,-4224226,7012,,
,,,,,,,,,,,,,,,
-57,966,5,-245,1645,490,93315,1385,22363200,53,624434,-111,-4224226,7012,,
,,,,,,,,,,,,,,,
-56,966,5,-122,1470,586,93312,1386,22363220,53,624434,-111,-4224227,7012,,
,,,,,,,,,,,,,,,
-59,966,8,-157,1592,638,93308,1386,22363260,53,624434,-111,-4224229,7012,,
,,,,,,,,,,,,,,,
-59,969,6,-245,1557,498,93309,1387,22363280,53,624434,-111,-4224229,7012,,
,,,,,,,,,,,,,,,
-57,969,7,-332,1671,577,93311,1388,22363300,53,624434,-111,-4224230,7011,,
,,,,,,,,,,,,,,,
-56,969,6,-297,1373,656,93324,1388,22363320,53,624434,-111,-4224231,7011,,
,,,,,,,,,,,,,,,
-61,965,5,-61,1426,568,93304,1388,22363360,53,624434,-111,-4224234,7011,,
,,,,,,,,,,,,,,,
-59,966,6,-210,1391,560,93308,1388,22363380,53,624433,-111,-4224234,7011,,
,,,,,,,,,,,,,,,
-57,968,3,-122,1400,533,93314,1389,22363400,53,624431,-111,-4224235,7011,,
,,,,,,,,,,,,,,,
-57,968,8,-245,1470,638,93311,1390,22363420,53,624431,-111,-4224236,7011,,
,,,,,,,,,,,,,,,
-59,964,5,-148,1478,525,93306,1389,22363460,53,624433,-111,-4224236,7011,,
,,,,,,,,,,,,,,,
-60,966,7,-201,1470,551,93317,1391,22363480,53,624431,-111,-4224237,7010,,
,,,,,,,,,,,,,,,
-57,967,4,-175,1452,551,93310,1391,22363500,53,624431,-111,-4224238,7010,,
,,,,,,,,,,,,,,,
-59,968,5,-323,1548,647,93314,1391,22363520,53,624431,-111,-4224238,7010,,
,,,,,,,,,,,,,,,
-60,964,8,-271,1610,507,93311,1391,22363580,53,624431,-111,-4224241,7010,,
,,,,,,,,,,,,,,,
-60,969,4,-210,1487,542,93299,1392,22363600,53,624431,-111,-4224241,7009,,
,,,,,,,,,,,,,,,
-58,968,8,-96,1478,551,93314,1393,22363620,53,624431,-111,-4224242,7009,,
,,,,,,,,,,,,,,,
-56,966,5,-131,1505,621,93318,1393,22363660,53,624431,-111,-4224243,7009,,
,,,,,,,,,,,,,,,
-58,966,5,-236,1435,638,93318,1393,22363680,53,624431,-111,-4224243,7009,,
,,,,,,,,,,,,,,,
-57,965,5,-183,1505,612,93319,1394,22363700,53,624431,-111,-4224243,7008,,
,,,,,,,,,,,,,,,
-58,965,6,-218,1583,630,93312,1394,22363720,53,624431,-111,-4224243,7008,,
,,,,,,,,,,,,,,,
-58,964,5,-253,1435,507,93323,1395,22363760,53,624430,-111,-4224244,7007,,
,,,,,,,,,,,,,,,
-57,969,4,-236,1391,586,93311,1396,22363780,53,624430,-111,-4224244,7007,,
,,,,,,,,,,,,,,,
-58,968,6,-140,1505,551,93314,1395,22363800,53,624427,-111,-4224244,7007,,
,,,,,,,,,,,,,,,
-57,969,4,-166,1470,568,93309,1397,22363820,53,624427,-111,-4224245,7007,,
,,,,,,,,,,,,,,,
-59,967,5,-253,1505,533,93304,1396,22363860,53,624426,-111,-4224246,7006,,
,,,,,,,,,,,,,,,
-60,969,5,-245,1487,612,93319,1397,22363880,53,624424,-111,-4224246,7006,,
,,,,,,,,,,,,,,,
-57,966,7,-210,1470,568,93315,1397,22363900,53,624424,-111,-4224246,7006,,
,,,,,,,,,,,,,,,
-57,967,4,-122,1610,516,93311,1398,22363920,53,624423,-111,-4224246,7006,,
,,,,,,,,,,,,,,,
-57,969,5,-218,1540,490,93305,1399,22363960,53,624423,-111,-4224246,7005,,
,,,,,,,,,,,,,,,
-57,969,4,-288,1566,481,93309,1399,22363980,53,624421,-111,-4224246,7005,,
,,,,,,,,,,,,,,,
-55,968,6,-210,1470,551,93305,1399,22364000,53,624421,-111,-4224246,7005,,
,,,,,,,,,,,,,,,
-60,971,8,-166,1618,621,93315,1400,22364020,53,624420,-111,-4224248,7005,,
,,,,,,,,,,,,,,,
-55,968,4,-140,1443,621,93316,1400,22364060,53,624420,-111,-4224246,7004,,
,,,,,,,,,,,,,,,
-57,969,6,-166,1522,586,93304,1400,22364080,53,624419,-111,-4224246,7004,,
,,,,,,,,,,,,,,,
-60,966,5,-280,1531,603,93318,1401,22364100,53,624417,-111,-4224248,7004,,
,,,,,,,,,,,,,,,
-57,965,8,-236,1461,498,93306,1401,22364120,53,624417,-111,-4224249,7004,,
,,,,,,,,,,,,,,,
-59,970,5,-218,1365,481,93312,1402,22364160,53,624417,-111,-4224250,7004,,
,,,,,,,,,,,,,,,
-55,967,12,-210,1636,603,93315,1402,22364180,53,624417,-111,-4224251,7004,,
,,,,,,,,,,,,,,,
-60,970,4,-297,1540,595,93317,1403,22364200,53,624416,-111,-4224251,7003,,
,,,,,,,,,,,,,,,
-59,972,4,-140,1470,665,93317,1403,22364220,53,624416,-111,-4224251,7003,,
,,,,,,,,,,,,,,,
-58,967,5,-175,1365,647,93311,1405,22364260,53,624413,-111,-4224252,7003,,
,,,,,,,,,,,,,,,
-58,966,6,-271,1365,595,93298,1404,22364280,53,624413,-111,-4224253,7003,,
,,,,,,,,,,,,,,,
-57,969,7,-236,1566,621,93305,1406,22364300,53,624413,-111,-4224253,7003,,
,,,,,,,,,,,,,,,
-60,967,6,-306,1207,463,93304,1405,22364320,53,624412,-111,-4224255,7003,,
,,,,,,,,,,,,,,,
-58,966,9,-61,1505,595,93305,1406,22364360,53,624409,-111,-4224255,7002,,
,,,,,,,,,,,,,,,
-58,964,4,-166,1478,533,93315,1407,22364380,53,624409,-111,-4224256,7002,,
,,,,,,,,,,,,,,,
-58,967,4,-148,1356,542,93302,1407,22364400,53,624409,-111,-4224256,7002,,
,,,,,,,,,,,,,,,
-58,969,4,-43,1295,463,93314,1408,22364420,53,624409,-111,-4224257,7002,,
,,,,,,,,,,,,,,,
-60,968,10,-192,1531,551,93304,1407,22364460,53,624408,-111,-4224257,7002,,
,,,,,,,,,,,,,,,
-55,967,7,-210,1400,507,93322,1408,22364480,53,624406,-111,-4224257,7002,,
,,,,,,,,,,,,,,,
-58,971,5,-236,1496,525,93319,1409,22364500,53,624406,-111,-4224258,7001,,
,,,,,,,,,,,,,,,
-59,969,7,-148,1312,542,93308,1410,22364520,53,624405,-111,-4224258,7001,,
,,,,,,,,,,,,,,,
-57,967,5,-175,1505,630,93305,1410,22364560,53,624403,-111,-4224260,7001,,
,,,,,,,,,,,,,,,
-57,969,5,-245,1461,507,93313,1410,22364580,53,624403,-111,-4224260,7001,,
,,,,,,,,,,,,,,,
-57,967,6,-192,1522,577,93323,1411,22364600,53,624403,-111,-4224262,7001,,
,,,,,,,,,,,,,,,
-59,967,8,-245,1417,647,93312,1411,22364620,53,624403,-111,-4224264,7001,,
,,,,,,,,,,,,,,,
-51,966,4,-175,1461,507,93313,1412,22364660,53,624402,-111,-4224265,7001,,
,,,,,,,,,,,,,,,
-56,966,5,-236,1417,542,93305,1412,22364680,53,624402,-111,-4224265,7001,,
,,,,,,,,,,,,,,,
-57,966,4,-210,1312,516,93313,1412,22364700,53,624402,-111,-4224265,7001,,
,,,,,,,,,,,,,,,
-54,969,5,-183,1478,507,93315,1413,22364720,53,624401,-111,-4224265,7001,,
,,,,,,,,,,,,,,,
-54,969,4,-131,1426,603,93302,1413,22364760,53,624398,-111,-4224265,7000,,
,,,,,,,,,,,,,,,
-54,966,8,-157,1548,463,93319,1413,22364780,53,624398,-111,-4224266,7000,,
,,,,,,,,,,,,,,,
-60,968,8,-166,1548,568,93310,1415,22364800,53,624397,-111,-4224266,7000,,
,,,,,,,,,,,,,,,
-57,968,7,-175,1426,568,93316,1413,22364820,53,624397,-111,-4224265,7000,,
,,,,,,,,,,,,,,,
-55,969,6,-227,1443,455,93303,1415,22364860,53,624395,-111,-4224266,6999,,
,,,,,,,,,,,,,,,
-59,969,4,-288,1365,542,93308,1416,22364880,53,624394,-111,-4224265,6999,,
,,,,,,,,,,,,,,,
-55,966,9,-218,1330,560,93300,1416,22364900,53,624394,-111,-4224265,6999,,
,,,,,,,,,,,,,,,
-58,964,5,-87,1513,446,93294,1417,22364920,53,624394,-111,-4224265,6998,,
,,,,,,,,,,,,,,,
-57,970,7,-280,1601,533,93325,1418,22364960,53,624392,-111,-4224265,6998,,
,,,,,,,,,,,,,,,
-57,968,7,-192,1426,507,93311,1417,22364980,53,624391,-111,-4224266,6998,,
,,,,,,,,,,,,,,,
-57,967,5,-297,1356,516,93321,1418,22365000,53,624391,-111,-4224265,6997,,
,,,,,,,,,,,,,,,
-59,965,5,-192,1426,498,93317,1418,22365020,53,624390,-111,-4224265,6997,,
,,,,,,,,,,,,,,,
-54,970,7,-210,1461,577,93307,1419,22365060,53,624387,-111,-4224264,6997,,
,,,,,,,,,,,,,,,
-61,968,2,-253,1391,551,93324,1419,22365080,53,624385,-111,-4224264,6996,,
,,,,,,,,,,,,,,,
-60,968,4,-236,1382,612,93307,1419,22365100,53,624384,-111,-4224264,6996,,
,,,,,,,,,,,,,,,
-54,969,4,-157,1373,507,93323,1419,22365120,53,624383,-111,-4224263,6996,,
,,,,,,,,,,,,,,,
-57,966,7,-148,1417,525,93312,1419,22365160,53,624380,-111,-4224262,6996,,
,,,,,,,,,,,,,,,
-62,969,6,-280,1391,638,93318,1420,22365180,53,624379,-111,-4224262,6995,,
,,,,,,,,,,,,,,,
-60,966,3,-175,1365,463,93310,1421,22365200,53,624377,-111,-4224262,6995,,
,,,,,,,,,,,,,,,
-56,969,9,-315,1365,516,93303,1421,22365220,53,624377,-111,-4224262,6995,,
,,,,,,,,,,,,,,,
-60,970,2,-157,1470,673,93312,1422,22365260,53,624377,-111,-4224263,6995,,
,,,,,,,,,,,,,,,
-64,969,8,-288,1636,586,93312,1422,22365280,53,624376,-111,-4224262,6995,,
,,,,,,,,,,,,,,,
-54,968,5,-385,1321,551,93313,1422,22365300,53,624376,-111,-4224263,6996,,
,,,,,,,,,,,,,,,
-58,971,7,-210,1487,498,93319,1423,22365320,53,624376,-111,-4224264,6996,,
,,,,,,,,,,,,,,,
-62,969,4,-306,1478,525,93324,1423,22365360,53,624374,-111,-4224264,6996,,
,,,,,,,,,,,,,,,
-57,967,8,-105,1575,586,93301,1425,22365380,53,624374,-111,-4224265,6996,,
,,,,,,,,,,,,,,,
-58,969,8,-341,1312,472,93309,1424,22365400,53,624374,-111,-4224265,6996,,
,,,,,,,,,,,,,,,
-60,968,4,-227,1461,542,93307,1427,22365420,53,624373,-111,-4224265,6996,,
,,,,,,,,,,,,,,,
-60,967,8,-227,1513,533,93311,1425,22365460,53,624373,-111,-4224265,6996,,
,,,,,,,,,,,,,,,
-54,966,5,-131,1583,577,93321,1427,22365480,53,624372,-111,-4224265,6996,,
,,,,,,,,,,,,,,,
-61,968,10,-192,1400,595,93313,1427,22365500,53,624370,-111,-4224265,6996,,
,,,,,,,,,,,,,,,
-57,964,2,-122,1461,533,93317,1427,22365520,53,624370,-111,-4224264,6996,,
,,,,,,,,,,,,,,,
-57,967,9,-157,1522,586,93318,1428,22365560,53,624369,-111,-4224265,6996,,
,,,,,,,,,,,,,,,
-57,968,4,-271,1522,638,93307,1429,22365580,53,624367,-111,-4224265,6996,,
,,,,,,,,,,,,,,,
-58,972,7,-70,1417,568,93311,1428,22365600,53,624366,-111,-4224265,6996,,
,,,,,,,,,,,,,,,
-54,966,2,-236,1487,551,93318,1430,22365620,53,624366,-111,-4224265,6995,,
,,,,,,,,,,,,,,,
-54,966,6,-87,1627,507,93306,1430,22365660,53,624363,-111,-4224265,6996,,
,,,,,,,,,,,,,,,
-60,970,9,-306,1417,568,93309,1430,22365680,53,624362,-111,-4224265,6996,,
,,,,,,,,,,,,,,,
-61,972,5,-148,1478,463,93321,1431,22365700,53,624362,-111,-4224266,6996,,
,,,,,,,,,,,,,,,
-54,966,6,-271,1452,507,93315,1430,22365720,53,624362,-111,-4224266,6996,,
,,,,,,,,,,,,,,,
-60,969,5,-157,1470,525,93303,1430,22365760,53,624361,-111,-4224265,6995,,
,,,,,,,,,,,,,,,
-57,969,9,-218,1513,542,93314,1432,22365780,53,624359,-111,-4224266,6996,,
,,,,,,,,,,,,,,,
-57,970,5,-148,1321,551,93315,1433,22365800,53,624359,-111,-4224267,6996,,
,,,,,,,,,,,,,,,
-54,972,8,-131,1461,507,93320,1433,22365820,53,624358,-111,-4224267,6995,,
,,,,,,,,,,,,,,,
-59,968,3,-358,1443,542,93312,1433,22365860,53,624356,-111,-4224268,6995,,
,,,,,,,,,,,,,,,
-61,969,6,-35,1548,630,93317,1433,22365880,53,624355,-111,-4224268,6995,,
,,,,,,,,,,,,,,,
-57,967,4,-192,1338,472,93307,1435,22365900,53,624355,-111,-4224267,6995,,
,,,,,,,,,,,,,,,
-51,968,6,-157,1478,568,93305,1434,22365920,53,624355,-111,-4224268,6995,,
,,,,,,,,,,,,,,,
-57,964,6,-227,1356,612,93306,1434,22365960,53,624352,-111,-4224270,6995,,
,,,,,,,,,,,,,,,
-60,969,5,-26,1531,560,93316,1435,22365980,53,624352,-111,-4224270,6995,,
,,,,,,,,,,,,,,,
-55,968,13,-253,1461,586,93312,1435,22370000,53,624352,-111,-4224271,6995,,
,,,,,,,,,,,,,,,
-57,969,2,-87,1400,525,93306,1436,22370020,53,624351,-111,-4224270,6995,,
,,,,,,,,,,,,,,,
-57,967,8,-113,1443,516,93313,1438,22370060,53,624349,-111,-4224268,6995,,
,,,,,,,,,,,,,,,
-59,966,4,-245,1443,525,93323,1436,22370080,53,624348,-111,-4224268,6995,,
,,,,,,,,,,,,,,,
-57,966,8,-131,1513,595,93307,1437,22370100,53,624348,-111,-4224268,6995,,
,,,,,,,,,,,,,,,
-57,970,3,-341,1391,603,93304,1437,22370120,53,624348,-111,-4224268,6995,,
,,,,,,,,,,,,,,,
-56,967,7,-148,1706,551,93314,1438,22370160,53,624347,-111,-4224268,6994,,
,,,,,,,,,,,,,,,
-56,969,9,-350,1443,455,93319,1439,22370180,53,624345,-111,-4224268,6994,,
,,,,,,,,,,,,,,,
-60,966,4,-122,1452,568,93315,1439,22370200,53,624345,-111,-4224267,6994,,
,,,,,,,,,,,,,,,
-57,972,6,-210,1365,533,93309,1440,22370220,53,624344,-111,-4224267,6994,,
,,,,,,,,,,,,,,,
-57,967,4,-122,1391,498,93306,1440,22370260,53,624344,-111,-4224267,6995,,
,,,,,,,,,,,,,,,
-57,966,6,-245,1592,568,93310,1440,22370280,53,624343,-111,-4224266,6994,,
,,,,,,,,,,,,,,,
-61,970,2,-288,1470,612,93311,1441,22370300,53,624341,-111,-4224265,6994,,
,,,,,,,,,,,,,,,
-60,964,7,-175,1338,516,93312,1441,22370320,53,624341,-111,-4224264,6994,,
,,,,,,,,,,,,,,,
-56,968,3,-210,1400,533,93306,1442,22370360,53,624340,-111,-4224264,6994,,
,,,,,,,,,,,,,,,
-56,966,8,-227,1443,551,93309,1442,22370380,53,624338,-111,-4224264,6994,,
,,,,,,,,,,,,,,,
-62,966,5,-280,1356,577,93313,1442,22370400,53,624337,-111,-4224264,6994,,
,,,,,,,,,,,,,,,
-57,969,5,-26,1461,551,93316,1443,22370420,53,624337,-111,-4224264,6994,,
,,,,,,,,,,,,,,,
-57,964,5,-210,1321,507,93308,1443,22370460,53,624333,-111,-4224264,6994,,
,,,,,,,,,,,,,,,
-58,967,6,-122,1513,551,93308,1443,22370480,53,624333,-111,-4224264,6994,,
,,,,,,,,,,,,,,,
-60,969,8,-271,1356,577,93298,1445,22370500,53,624333,-111,-4224265,6994,,
,,,,,,,,,,,,,,,
-57,968,4,-122,1496,577,93311,1445,22370520,53,624331,-111,-4224265,6994,,
,,,,,,,,,,,,,,,
-54,965,8,-271,1400,551,93316,1445,22370560,53,624330,-111,-4224266,6995,,
,,,,,,,,,,,,,,,
-59,968,4,-245,1478,586,93304,1445,22370580,53,624329,-111,-4224266,6995,,
,,,,,,,,,,,,,,,
-60,969,11,-70,1513,498,93311,1445,22370600,53,624327,-111,-4224267,6995,,
,,,,,,,,,,,,,,,
-55,969,6,-245,1470,595,93315,1447,22370620,53,624326,-111,-4224267,6994,,
,,,,,,,,,,,,,,,
-57,967,5,-96,1426,507,93310,1446,22370660,53,624326,-111,-4224268,6995,,
,,,,,,,,,,,,,,,
-61,969,4,-358,1618,586,93324,1447,22370680,53,624326,-111,-4224268,6995,,
,,,,,,,,,,,,,,,
-56,969,11,17,1618,525,93303,1447,22370700,53,624325,-111,-4224270,6995,,
,,,,,,,,,,,,,,,
-58,967,6,-358,1216,481,93318,1448,22370720,53,624323,-111,-4224271,6995,,
,,,,,,,,,,,,,,,
-58,969,2,-192,1321,560,93315,1450,22370760,53,624322,-111,-4224272,6995,,
,,,,,,,,,,,,,,,
-59,968,8,-280,1505,595,93312,1450,22370780,53,624322,-111,-4224272,6995,,
,,,,,,,,,,,,,,,
-54,969,4,-175,1513,498,93315,1450,22370800,53,624322,-111,-4224273,6995,,
,,,,,,,,,,,,,,,
-59,968,11,-210,1347,507,93322,1451,22370820,53,624320,-111,-4224274,6995,,
,,,,,,,,,,,,,,,
-57,964,0,-288,1347,577,93305,1451,22370860,53,624319,-111,-4224274,6996,,
,,,,,,,,,,,,,,,
-54,967,10,-87,1653,525,93310,1452,22370880,53,624318,-111,-4224274,6996,,
,,,,,,,,,,,,,,,
-54,968,5,-315,1312,481,93316,1452,22370900,53,624318,-111,-4224274,6996,,
,,,,,,,,,,,,,,,
-59,966,8,-306,1496,551,93307,1452,22370920,53,624318,-111,-4224273,6996,,
,,,,,,,,,,,,,,,
-56,969,4,-358,1400,516,93308,1452,22370960,53,624315,-111,-4224275,6996,,
,,,,,,,,,,,,,,,
-53,967,5,-113,1443,586,93316,1452,22370980,53,624313,-111,-4224277,6997,,
,,,,,,,,,,,,,,,
-58,966,7,-70,1338,507,93302,1454,22371000,53,624312,-111,-4224277,6997,,
,,,,,,,,,,,,,,,
-58,966,4,-140,1513,525,93313,1453,22371020,53,624312,-111,-4224277,6997,,
,,,,,,,,,,,,,,,
-53,967,8,-280,1487,411,93319,1454,22371060,53,624312,-111,-4224277,6997,,
,,,,,,,,,,,,,,,
-54,968,4,-192,1452,595,93307,1454,22371080,53,624311,-111,-4224277,6997,,
,,,,,,,,,,,,,,,
-62,968,7,-148,1356,560,93316,1455,22371100,53,624309,-111,-4224277,6997,,
,,,,,,,,,,,,,,,
-57,965,5,-236,1356,551,93313,1455,22371120,53,624309,-111,-4224279,6997,,
,,,,,,,,,,,,,,,
-55,969,9,-43,1496,560,93314,1455,22371160,53,624308,-111,-4224279,6997,,
,,,,,,,,,,,,,,,
-59,970,5,-280,1522,630,93324,1456,22371180,53,624307,-111,-4224279,6997,,
,,,,,,,,,,,,,,,
-64,968,8,-201,1435,542,93312,1457,22371200,53,624307,-111,-4224279,6997,,
,,,,,,,,,,,,,,,
-54,970,5,-271,1330,472,93308,1457,22371220,53,624305,-111,-4224279,6997,,
,,,,,,,,,,,,,,,
-55,969,5,-166,1461,577,93304,1457,22371260,53,624304,-111,-4224279,6997,,
,,,,,,,,,,,,,,,
-60,963,4,-148,1365,638,93306,1458,22371280,53,624302,-111,-4224279,6997,,
,,,,,,,,,,,,,,,
-60,969,5,-35,1382,446,93317,1459,22371300,53,624301,-111,-4224279,6997,,
,,,,,,,,,,,,,,,
-53,972,6,-245,1347,551,93304,1459,22371320,53,624301,-111,-4224279,6997,,
,,,,,,,,,,,,,,,
-55,969,4,-175,1531,533,93323,1460,22371360,53,624298,-111,-4224279,6997,,
,,,,,,,,,,,,,,,
-57,966,6,-175,1461,560,93318,1460,22371380,53,624297,-111,-4224279,6998,,
,,,,,,,,,,,,,,,
-57,966,5,-210,1531,507,93313,1461,22371400,53,624297,-111,-4224279,6998,,
,,,,,,,,,,,,,,,
-55,966,8,-183,1478,560,93315,1460,22371420,53,624297,-111,-4224280,6998,,
,,,,,,,,,,,,,,,
-60,968,5,-236,1557,533,93316,1461,22371460,53,624295,-111,-4224280,6998,,
,,,,,,,,,,,,,,,
-59,969,5,-87,1566,577,93318,1461,22371480,53,624294,-111,-4224281,6998,,
,,,,,,,,,,,,,,,
-59,966,8,-227,1513,498,93300,1461,22371500,53,624294,-111,-4224281,6998,,
,,,,,,,,,,,,,,,
-57,967,3,-218,1592,533,93301,1461,22371520,53,624293,-111,-4224282,6998,,
,,,,,,,,,,,,,,,
-56,966,5,-166,1487,560,93315,1462,22371560,53,624290,-111,-4224281,6998,,
,,,,,,,,,,,,,,,
-56,968,4,-183,1531,490,93303,1462,22371580,53,624290,-111,-4224280,6998,,
,,,,,,,,,,,,,,,
-59,969,8,-332,1321,420,93301,1464,22371600,53,624290,-111,-4224280,6998,,
,,,,,,,,,,,,,,,
-59,968,2,-245,1496,463,93309,1463,22371620,53,624290,-111,-4224280,6998,,
,,,,,,,,,,,,,,,
-56,969,6,-157,1478,472,93301,1464,22371660,53,624289,-111,-4224281,6998,,
,,,,,,,,,,,,,,,
-58,966,7,-253,1496,542,93310,1464,22371680,53,624287,-111,-4224281,6998,,
,,,,,,,,,,,,,,,
-60,969,8,-61,1391,560,93317,1465,22371700,53,624287,-111,-4224281,6998,,
,,,,,,,,,,,,,,,
-57,965,3,-280,1356,472,93317,1465,22371720,53,624287,-111,-4224282,6998,,
,,,,,,,,,,,,,,,
-57,967,5,-61,1540,463,93313,1465,22371760,53,624287,-111,-4224282,6999,,
,,,,,,,,,,,,,,,
-56,963,6,-315,1496,507,93321,1467,22371780,53,624286,-111,-4224282,6999,,
,,,,,,,,,,,,,,,
-60,966,5,-122,1470,533,93320,1467,22371800,53,624284,-111,-4224282,6999,,
,,,,,,,,,,,,,,,
-54,965,5,-236,1417,437,93307,1467,22371820,53,624283,-111,-4224284,6999,,
,,,,,,,,,,,,,,,
-54,965,5,-175,1478,507,93305,1467,22371860,53,624283,-111,-4224282,6998,,
,,,,,,,,,,,,,,,
-59,966,10,-288,1426,551,93320,1469,22371880,53,624283,-111,-4224281,6998,,
,,,,,,,,,,,,,,,
-57,969,2,-280,1540,490,93311,1468,22371900,53,624282,-111,-4224281,6998,,
,,,,,,,,,,,,,,,
-57,964,8,-122,1583,516,93320,1469,22371920,53,624280,-111,-4224280,6998,,
,,,,,,,,,,,,,,,
-54,968,3,-175,1583,551,93315,1468,22371960,53,624279,-111,-4224279,6998,,
,,,,,,,,,,,,,,,
-60,968,5,-166,1461,516,93311,1468,22371980,53,624277,-111,-4224279,6998,,
,,,,,,,,,,,,,,,
-61,972,7,-157,1496,463,93313,1470,22372000,53,624276,-111,-4224279,6998,,
,,,,,,,,,,,,,,,
-57,970,5,-61,1470,525,93314,1470,22372020,53,624275,-111,-4224279,6998,,
,,,,,,,,,,,,,,,
-59,970,4,-280,1496,498,93306,1470,22372060,53,624273,-111,-4224279,6998,,
,,,,,,,,,,,,,,,
-57,968,5,-61,1610,533,93316,1471,22372080,53,624273,-111,-4224279,6998,,
,,,,,,,,,,,,,,,
-56,965,8,-280,1645,568,93313,1471,22372100,53,624273,-111,-4224279,6998,,
,,,,,,,,,,,,,,,
-57,966,5,-236,1426,551,93306,1472,22372120,53,624272,-111,-4224279,6998,,
,,,,,,,,,,,,,,,
-56,967,8,-148,1522,428,93308,1471,22372160,53,624272,-111,-4224279,6998,,
,,,,,,,,,,,,,,,
-56,967,8,-148,1522,428,93302,1472,22372180,53,624271,-111,-4224279,6998,,
,,,,,,,,,,,,,,,
-51,970,10,-297,1435,481,93302,1472,22372200,53,624269,-111,-4224279,6998,,
,,,,,,,,,,,,,,,
-57,968,6,-131,1365,472,93313,1474,22372220,53,624269,-111,-4224279,6998,,
,,,,,,,,,,,,,,,
-56,966,4,-236,1548,647,93318,1475,22372260,53,624268,-111,-4224279,6998,,
,,,,,,,,,,,,,,,
-57,970,5,-253,1408,595,93309,1474,22372280,53,624268,-111,-4224279,6998,,
,,,,,,,,,,,,,,,
-56,972,8,-131,1461,533,93316,1476,22372300,53,624266,-111,-4224279,6998,,
,,,,,,,,,,,,,,,
-56,966,5,-148,1365,542,93311,1476,22372320,53,624266,-111,-4224278,6998,,
,,,,,,,,,,,,,,,
-55,969,5,-43,1592,586,93322,1477,22372360,53,624265,-111,-4224278,6998,,
,,,,,,,,,,,,,,,
-57,969,4,-201,1470,525,93308,1476,22372380,53,624265,-111,-4224278,6998,,
,,,,,,,,,,,,,,,
-59,966,3,-175,1435,472,93315,1478,22372400,53,624264,-111,-4224278,6998,,
,,,,,,,,,,,,,,,
-58,969,5,-131,1391,516,93311,1478,22372420,53,624264,-111,-4224278,6998,,
,,,,,,,,,,,,,,,
-54,968,4,-280,1435,490,93318,1477,22372460,53,624261,-111,-4224278,6998,,
,,,,,,,,,,,,,,,
-57,968,6,-227,1478,533,93308,1478,22372480,53,624261,-111,-4224278,6998,,
,,,,,,,,,,,,,,,
-59,966,6,-105,1321,542,93326,1479,22372500,53,624261,-111,-4224278,6998,,
,,,,,,,,,,,,,,,
-56,966,7,-175,1478,507,93307,1478,22372520,53,624259,-111,-4224277,6998,,
,,,,,,,,,,,,,,,
-54,966,6,-306,1452,472,93307,1480,22372560,53,624258,-111,-4224277,6998,,
,,,,,,,,,,,,,,,
-60,967,5,-227,1408,490,93310,1479,22372580,53,624257,-111,-4224277,6998,,
,,,,,,,,,,,,,,,
-59,968,5,-87,1347,568,93307,1480,22372600,53,624257,-111,-4224277,6998,,
,,,,,,,,,,,,,,,
-60,966,5,-280,1338,472,93309,1481,22372620,53,624255,-111,-4224277,6998,,
,,,,,,,,,,,,,,,
-60,966,5,-271,1461,516,93313,1481,22372660,53,624254,-111,-4224278,6997,,
,,,,,,,,,,,,,,,
-57,968,4,-157,1470,603,93312,1480,22372680,53,624253,-111,-4224278,6997,,
,,,,,,,,,,,,,,,
-57,969,8,-166,1470,621,93311,1482,22372700,53,624251,-111,-4224278,6997,,
,,,,,,,,,,,,,,,
-57,971,4,-271,1330,551,93316,1482,22372720,53,624251,-111,-4224277,6997,,
,,,,,,,,,,,,,,,
-61,967,6,-131,1365,560,93316,1482,22372760,53,624250,-111,-4224275,6997,,
,,,,,,,,,,,,,,,
-57,969,5,-297,1417,551,93316,1482,22372780,53,624250,-111,-4224275,6997,,
,,,,,,,,,,,,,,,
-57,970,8,-8,1531,560,93317,1483,22372800,53,624248,-111,-4224275,6997,,
,,,,,,,,,,,,,,,
-58,970,5,-262,1382,490,93314,1483,22372820,53,624247,-111,-4224275,6997,,
,,,,,,,,,,,,,,,
-57,969,5,-70,1260,455,93315,1484,22372860,53,624247,-111,-4224273,6996,,
,,,,,,,,,,,,,,,
-56,967,6,-70,1592,472,93328,1484,22372880,53,624247,-111,-4224274,6996,,
,,,,,,,,,,,,,,,
-54,968,5,-166,1400,472,93325,1485,22372900,53,624247,-111,-4224275,6996,,
,,,,,,,,,,,,,,,
-59,966,4,-201,1426,533,93318,1485,22372920,53,624246,-111,-4224275,6996,,
,,,,,,,,,,,,,,,
-57,965,2,-192,1373,446,93318,1485,22372960,53,624243,-111,-4224275,6997,,
,,,,,,,,,,,,,,,
-60,969,5,-175,1461,577,93315,1486,22372980,53,624243,-111,-4224278,6997,,
,,,,,,,,,,,,,,,
-62,966,7,-376,1251,525,93315,1486,22373000,53,624243,-111,-4224279,6997,,
,,,,,,,,,,,,,,,
-58,970,6,-183,1435,490,93322,1487,22373020,53,624243,-111,-4224279,6998,,
,,,,,,,,,,,,,,,
-59,969,6,-210,1382,507,93304,1487,22373060,53,624243,-111,-4224279,6997,,
,,,,,,,,,,,,,,,
-57,969,6,-96,1522,551,93332,1488,22373080,53,624241,-111,-4224280,6997,,
,,,,,,,,,,,,,,,
-57,965,6,-280,1408,463,93311,1488,22373100,53,624241,-111,-4224281,6997,,
,,,,,,,,,,,,,,,
-60,969,5,-192,1443,481,93303,1488,22373120,53,624241,-111,-4224281,6997,,
,,,,,,,,,,,,,,,
-57,967,6,-288,1452,516,93316,1489,22373160,53,624241,-111,-4224280,6997,,
,,,,,,,,,,,,,,,
-55,969,4,-105,1356,525,93309,1489,22373180,53,624240,-111,-4224280,6997,,
,,,,,,,,,,,,,,,
-60,969,7,-122,1531,551,93319,1490,22373200,53,624240,-111,-4224281,6997,,
,,,,,,,,,,,,,,,
-57,965,5,-271,1461,516,93317,1489,22373220,53,624240,-111,-4224281,6997,,
,,,,,,,,,,,,,,,
-58,969,6,-113,1400,463,93311,1490,22373260,53,624240,-111,-4224281,6997,,
,,,,,,,,,,,,,,,
-56,966,5,-367,1382,560,93319,1490,22373280,53,624240,-111,-4224281,6997,,
,,,,,,,,,,,,,,,
-60,966,6,-210,1461,542,93300,1491,22373300,53,624241,-111,-4224280,6997,,
,,,,,,,,,,,,,,,
-58,970,4,-183,1408,446,93303,1490,22373320,53,624241,-111,-4224281,6997,,
,,,,,,,,,,,,,,,
-57,967,3,-131,1417,516,93306,1492,22373360,53,624240,-111,-4224282,6996,,
,,,,,,,,,,,,,,,
-57,967,5,-288,1478,507,93308,1493,22373380,53,624240,-111,-4224282,6996,,
,,,,,,,,,,,,,,,
-60,966,7,-192,1426,490,93302,1492,22373400,53,624240,-111,-4224284,6996,,
,,,,,,,,,,,,,,,
-56,969,5,-236,1365,516,93313,1493,22373420,53,624239,-111,-4224284,6996,,
,,,,,,,,,,,,,,,
-56,967,4,-70,1338,551,93303,1493,22373460,53,624239,-111,-4224285,6996,,
,,,,,,,,,,,,,,,
-57,970,7,-183,1426,525,93316,1493,22373480,53,624237,-111,-4224285,6996,,
,,,,,,,,,,,,,,,
-57,969,4,-280,1443,490,93302,1494,22373500,53,624237,-111,-4224286,6996,,
,,,,,,,,,,,,,,,
-56,969,7,-245,1575,481,93314,1494,22373520,53,624236,-111,-4224286,6996,,
,,,,,,,,,,,,,,,
-58,966,6,-271,1373,437,93308,1495,22373560,53,624236,-111,-4224287,6996,,
,,,,,,,,,,,,,,,
-55,969,5,-148,1531,577,93316,1495,22373580,53,624236,-111,-4224287,6996,,
,,,,,,,,,,,,,,,
-57,964,5,-210,1417,490,93308,1495,22373600,53,624236,-111,-4224287,6996,,
,,,,,,,,,,,,,,,
-60,970,6,-253,1417,516,93320,1495,22373620,53,624236,-111,-4224287,6996,,
,,,,,,,,,,,,,,,
-56,965,5,-245,1400,533,93311,1496,22373660,53,624236,-111,-4224288,6996,,
,,,,,,,,,,,,,,,
-57,970,5,-61,1513,533,93324,1496,22373680,53,624236,-111,-4224289,6995,,
,,,,,,,,,,,,,,,
-57,969,6,-262,1391,533,93303,1496,22373700,53,624236,-111,-4224289,6995,,
,,,,,,,,,,,,,,,
-57,970,5,-218,1443,525,93321,1497,22373720,53,624236,-111,-4224292,6995,,
,,,,,,,,,,,,,,,
-55,967,8,-2213,1513,446,93318,1499,22373760,53,624236,-111,-4224292,6995,,
,,,,,,,,,,,,,,,
-56,968,5,-166,1496,577,93314,1499,22373780,53,624236,-111,-4224292,6995,,
,,,,,,,,,,,,,,,
-59,968,6,-192,1505,560,93318,1499,22373800,53,624236,-111,-4224293,6995,,
,,,,,,,,,,,,,,,
-59,964,8,-210,1356,498,93321,1500,22373820,53,624236,-111,-4224294,6994,,
,,,,,,,,,,,,,,,
-59,966,8,-43,1400,463,93309,1500,22373860,53,624235,-111,-4224294,6994,,
,,,,,,,,,,,,,,,
-58,969,4,-113,1417,638,93314,1501,22373880,53,624235,-111,-4224295,6994,,
,,,,,,,,,,,,,,,
-59,967,8,-140,1478,595,93312,1502,22373900,53,624235,-111,-4224295,6994,,
,,,,,,,,,,,,,,,
-57,968,5,-183,1382,463,93311,1501,22373920,53,624235,-111,-4224296,6993,,
,,,,,,,,,,,,,,,
-56,966,5,-96,1557,455,93307,1502,22373960,53,624235,-111,-4224295,6993,,
,,,,,,,,,,,,,,,
-57,968,6,-140,1583,498,93304,1502,22373980,53,624235,-111,-4224296,6993,,
,,,,,,,,,,,,,,,
-54,966,5,-61,1417,498,93307,1502,22374000,53,624235,-111,-4224296,6992,,
,,,,,,,,,,,,,,,
-57,966,6,-113,1452,481,93310,1503,22374020,53,624235,-111,-4224296,6992,,
,,,,,,,,,,,,,,,
-57,966,4,-140,1496,446,93323,1503,22374060,53,624235,-111,-4224300,6992,,
,,,,,,,,,,,,,,,
-57,969,7,-201,1540,577,93311,1503,22374080,53,624235,-111,-4224299,6991,,
,,,,,,,,,,,,,,,
-59,966,8,-140,1557,455,93324,1504,22374100,53,624236,-111,-4224298,6991,,
,,,,,,,,,,,,,,,
-59,966,5,-105,1461,551,93316,1504,22374120,53,624236,-111,-4224299,6991,,
,,,,,,,,,,,,,,,
-57,967,5,-288,1452,516,93317,1504,22374160,53,624235,-111,-4224300,6991,,
,,,,,,,,,,,,,,,
-57,969,3,-245,1505,516,93300,1504,22374180,53,624235,-111,-4224301,6990,,
,,,,,,,,,,,,,,,
-56,966,7,-183,1557,463,93311,1506,22374200,53,624235,-111,-4224301,6990,,
,,,,,,,,,,,,,,,
-60,967,6,-96,1487,533,93315,1506,22374220,53,624233,-111,-4224301,6990,,
,,,,,,,,,,,,,,,
-57,971,7,-280,1435,551,93314,1507,22374260,53,624235,-111,-4224302,6990,,
,,,,,,,,,,,,,,,
-57,969,2,-140,1601,568,93309,1507,22374280,53,624235,-111,-4224302,6990,,
,,,,,,,,,,,,,,,
-60,966,8,-148,1531,542,93306,1507,22374300,53,624235,-111,-4224302,6990,,
,,,,,,,,,,,,,,,
-62,964,7,-157,1330,568,93319,1507,22374320,53,624235,-111,-4224304,6990,,
,,,,,,,,,,,,,,,
-56,969,5,-166,1373,490,93307,1508,22374360,53,624235,-111,-4224303,6989,,
,,,,,,,,,,,,,,,
-57,969,5,-140,1592,533,93304,1508,22374380,53,624235,-111,-4224304,6989,,
,,,,,,,,,,,,,,,
-56,969,8,-78,1662,507,93321,1509,22374400,53,624235,-111,-4224306,6989,,
,,,,,,,,,,,,,,,
-59,967,8,-218,1478,525,93318,1509,22374420,53,624235,-111,-4224307,6989,,
,,,,,,,,,,,,,,,
-55,969,3,-70,1408,560,93305,1509,22374460,53,624235,-111,-4224308,6989,,
,,,,,,,,,,,,,,,
-51,966,4,-131,1557,428,93304,1510,22374480,53,624233,-111,-4224308,6988,,
,,,,,,,,,,,,,,,
-58,969,5,-192,1583,490,93315,1510,22374500,53,624233,-111,-4224308,6988,,
,,,,,,,,,,,,,,,
-57,968,10,-70,1461,525,93304,1510,22374520,53,624235,-111,-4224309,6988,,
,,,,,,,,,,,,,,,
-55,968,3,-245,1408,516,93321,1511,22374560,53,624235,-111,-4224311,6988,,
,,,,,,,,,,,,,,,
-57,968,5,-218,1478,533,93306,1512,22374580,53,624235,-111,-4224313,6987,,
,,,,,,,,,,,,,,,
-54,968,3,-192,1505,630,93318,1511,22374600,53,624235,-111,-4224313,6987,,
,,,,,,,,,,,,,,,
-57,965,8,-183,1505,595,93328,1512,22374620,53,624235,-111,-4224314,6987,,
,,,,,,,,,,,,,,,
-58,969,5,-323,1382,516,93312,1512,22374660,53,624235,-111,-4224315,6987,,
,,,,,,,,,,,,,,,
-57,966,4,-157,1575,525,93319,1514,22374680,53,624233,-111,-4224317,6987,,
,,,,,,,,,,,,,,,
-54,969,5,-166,1478,551,93309,1513,22374700,53,624235,-111,-4224317,6986,,
,,,,,,,,,,,,,,,
-58,966,8,-52,1513,481,93314,1513,22374720,53,624235,-111,-4224317,6986,,
,,,,,,,,,,,,,,,
-57,969,8,-323,1347,577,93310,1513,22374760,53,624235,-111,-4224320,6985,,
,,,,,,,,,,,,,,,
-60,966,4,-306,1373,472,93313,1515,22374780,53,624235,-111,-4224321,6985,,
,,,,,,,,,,,,,,,
-57,969,9,-148,1478,463,93313,1515,22374800,53,624235,-111,-4224321,6985,,
,,,,,,,,,,,,,,,
-58,972,5,-157,1636,656,93323,1515,22374820,53,624235,-111,-4224322,6985,,
,,,,,,,,,,,,,,,
-58,969,6,-52,1531,481,93310,1515,22374860,53,624235,-111,-4224323,6984,,
,,,,,,,,,,,,,,,
-56,966,5,-192,1548,560,93328,1516,22374880,53,624235,-111,-4224324,6984,,
,,,,,,,,,,,,,,,
-57,970,5,-201,1513,542,93320,1516,22374900,53,624236,-111,-4224324,6984,,
,,,,,,,,,,,,,,,
-56,969,7,-192,1627,516,93318,1517,22374920,53,624236,-111,-4224325,6984,,
,,,,,,,,,,,,,,,
-57,969,5,-288,1522,542,93309,1517,22374960,53,624236,-111,-4224327,6983,,
,,,,,,,,,,,,,,,
-57,968,5,-148,1583,472,93334,1517,22374980,53,624235,-111,-4224328,6983,,
,,,,,,,,,,,,,,,
-52,968,5,0,1522,516,93309,1517,22375000,53,624235,-111,-4224329,6983,,
,,,,,,,,,,,,,,,
-57,967,6,-78,1496,490,93309,1519,22375020,53,624235,-111,-4224328,6982,,
,,,,,,,,,,,,,,,
-60,968,5,-183,1365,490,93318,1519,22375060,53,624236,-111,-4224330,6982,,
,,,,,,,,,,,,,,,
-57,967,4,-175,1435,498,93310,1518,22375080,53,624236,-111,-4224330,6982,,
,,,,,,,,,,,,,,,
-54,969,5,-148,1557,472,93309,1519,22375100,53,624236,-111,-4224330,6981,,
,,,,,,,,,,,,,,,
-54,967,8,-148,1566,498,93322,1519,22375120,53,624236,-111,-4224331,6981,,
,,,,,,,,,,,,,,,
-56,969,7,-253,1408,568,93302,1520,22375160,53,624237,-111,-4224332,6981,,
,,,,,,,,,,,,,,,
-55,966,5,-175,1522,542,93312,1521,22375180,53,624237,-111,-4224332,6980,,
,,,,,,,,,,,,,,,
-58,969,5,-157,1548,376,93320,1521,22375200,53,624237,-111,-4224331,6980,,
,,,,,,,,,,,,,,,
-57,967,6,-131,1548,463,93313,1521,22375220,53,624237,-111,-4224330,6979,,
,,,,,,,,,,,,,,,
-61,969,8,-87,1566,481,93309,1521,22375260,53,624237,-111,-4224331,6978,,
,,,,,,,,,,,,,,,
-57,969,5,-122,1531,437,93311,1522,22375280,53,624237,-111,-4224331,6978,,
,,,,,,,,,,,,,,,
-55,965,5,-166,1303,525,93300,1523,22375300,53,624237,-111,-4224331,6978,,
,,,,,,,,,,,,,,,
-58,966,5,-271,1662,577,93319,1522,22375320,53,624237,-111,-4224332,6978,,
,,,,,,,,,,,,,,,
-57,967,6,-113,1400,481,93305,1523,22375360,53,624237,-111,-4224332,6977,,
,,,,,,,,,,,,,,,
-56,969,7,-253,1382,481,93316,1525,22375380,53,624237,-111,-4224334,6976,,
,,,,,,,,,,,,,,,
-57,968,3,-157,1618,577,93318,1524,22375400,53,624239,-111,-4224334,6976,,
,,,,,,,,,,,,,,,
-57,966,8,-26,1540,533,93322,1524,22375420,53,624239,-111,-4224334,6975,,
,,,,,,,,,,,,,,,
-58,969,5,-87,1557,612,93307,1525,22375460,53,624240,-111,-4224335,6975,,
,,,,,,,,,,,,,,,
-58,968,5,-175,1391,490,93322,1526,22375480,53,624240,-111,-4224335,6974,,
,,,,,,,,,,,,,,,
-54,970,4,-105,1636,586,93309,1526,22375500,53,624240,-111,-4224336,6974,,
,,,,,,,,,,,,,,,
-57,968,7,-166,1583,525,93310,1527,22375520,53,624240,-111,-4224336,6973,,
,,,,,,,,,,,,,,,
-55,968,5,-122,1487,516,93316,1528,22375560,53,624240,-111,-4224335,6972,,
,,,,,,,,,,,,,,,
-52,965,6,-140,1443,455,93322,1527,22375580,53,624240,-111,-4224335,6972,,
,,,,,,,,,,,,,,,
-54,969,5,-175,1443,446,93316,1528,22375600,53,624240,-111,-4224336,6972,,
,,,,,,,,,,,,,,,
-57,967,5,-253,1540,411,93321,1528,22375620,53,624241,-111,-4224336,6972,,
,,,,,,,,,,,,,,,
-59,967,5,-201,1470,507,93314,1529,22375660,53,624241,-111,-4224336,6971,,
,,,,,,,,,,,,,,,
-57,968,4,-113,1610,621,93318,1529,22375680,53,624243,-111,-4224336,6971,,
,,,,,,,,,,,,,,,
-54,967,5,-140,1382,542,93309,1529,22375700,53,624243,-111,-4224336,6970,,
,,,,,,,,,,,,,,,
-54,965,8,-192,1461,420,93310,1529,22375720,53,624243,-111,-4224336,6970,,
,,,,,,,,,,,,,,,
-56,969,5,-175,1382,595,93316,1530,22375760,53,624243,-111,-4224336,6969,,
,,,,,,,,,,,,,,,
-58,969,6,-175,1417,542,93318,1531,22375780,53,624243,-111,-4224336,6969,,
,,,,,,,,,,,,,,,
-57,970,5,-297,1391,446,93313,1531,22375800,53,624243,-111,-4224336,6968,,
,,,,,,,,,,,,,,,
-56,967,8,-113,1478,463,93300,1530,22375820,53,624244,-111,-4224336,6968,,
,,,,,,,,,,,,,,,
-60,968,6,-70,1566,551,93299,1532,22375860,53,624246,-111,-4224336,6968,,
,,,,,,,,,,,,,,,
-53,969,7,-78,1470,551,93325,1532,22375880,53,624246,-111,-4224337,6967,,
,,,,,,,,,,,,,,,
-54,967,5,-52,1505,560,93309,1533,22375900,53,624246,-111,-4224337,6967,,
,,,,,,,,,,,,,,,
-55,967,5,-148,1443,455,93308,1532,22375920,53,624246,-111,-4224337,6967,,
,,,,,,,,,,,,,,,
-57,969,6,-166,1505,498,93314,1533,22375960,53,624247,-111,-4224337,6966,,
,,,,,,,,,,,,,,,
-54,967,7,-227,1583,542,93309,1533,22375980,53,624247,-111,-4224336,6966,,
,,,,,,,,,,,,,,,
-57,970,6,-280,1636,533,93320,1534,22380000,53,624247,-111,-4224336,6965,,
,,,,,,,,,,,,,,,
-57,973,5,-131,1557,533,93303,1534,22380020,53,624247,-111,-4224337,6965,,
,,,,,,,,,,,,,,,
-54,964,6,-35,1618,542,93304,1535,22380060,53,624247,-111,-4224339,6965,,
,,,,,,,,,,,,,,,
-54,969,7,-175,1662,455,93309,1535,22380080,53,624248,-111,-4224339,6965,,
,,,,,,,,,,,,,,,
-57,970,8,-35,1592,621,93307,1536,22380100,53,624248,-111,-4224340,6965,,
,,,,,,,,,,,,,,,
-57,968,8,-157,1688,507,93319,1535,22380120,53,624248,-111,-4224340,6964,,
,,,,,,,,,,,,,,,
-61,966,6,-183,1662,551,93303,1536,22380160,53,624250,-111,-4224342,6964,,
,,,,,,,,,,,,,,,
-54,968,5,-131,1513,551,93312,1536,22380180,53,624250,-111,-4224342,6964,,
,,,,,,,,,,,,,,,
-55,965,7,-61,1452,472,93316,1536,22380200,53,624250,-111,-4224343,6963,,
,,,,,,,,,,,,,,,
-56,969,5,-78,1540,507,93318,1537,22380220,53,624250,-111,-4224343,6963,,
,,,,,,,,,,,,,,,
-57,968,7,-157,1627,612,93311,1538,22380260,53,624250,-111,-4224344,6963,,
,,,,,,,,,,,,,,,
-56,968,4,-192,1513,490,93316,1538,22380280,53,624250,-111,-4224344,6962,,
,,,,,,,,,,,,,,,
-57,964,6,-175,1435,481,93305,1539,22380300,53,624251,-111,-4224344,6962,,
,,,,,,,,,,,,,,,
-57,969,5,-78,1618,472,93311,1538,22380320,53,624251,-111,-4224344,6962,,
,,,,,,,,,,,,,,,
-57,967,6,-157,1452,603,93313,1539,22380360,53,624251,-111,-4224345,6961,,
,,,,,,,,,,,,,,,
-58,967,5,-227,1548,533,93314,1539,22380380,53,624251,-111,-4224345,6961,,
,,,,,,,,,,,,,,,
-55,968,6,-113,1610,437,93320,1540,22380400,53,624251,-111,-4224346,6961,,
,,,,,,,,,,,,,,,
-57,969,5,-148,1487,376,93307,1540,22380420,53,624253,-111,-4224346,6961,,
,,,,,,,,,,,,,,,
-56,967,6,-113,1601,586,93316,1540,22380460,53,624253,-111,-4224347,6961,,
,,,,,,,,,,,,,,,
-57,966,5,-148,1540,577,93317,1541,22380480,53,624253,-111,-4224349,6960,,
,,,,,,,,,,,,,,,
-55,970,6,-61,1653,551,93312,1541,22380500,53,624254,-111,-4224349,6960,,
,,,,,,,,,,,,,,,
-56,967,6,-140,1610,542,93301,1541,22380520,53,624254,-111,-4224350,6960,,
,,,,,,,,,,,,,,,
-57,967,2,-131,1583,577,93319,1542,22380560,53,624254,-111,-4224350,6959,,
,,,,,,,,,,,,,,,
-57,966,6,-113,1645,577,93320,1542,22380580,53,624254,-111,-4224350,6959,,
,,,,,,,,,,,,,,,
-57,970,5,-131,1461,568,93307,1542,22380600,53,624255,-111,-4224351,6959,,
,,,,,,,,,,,,,,,
-54,970,5,-140,1627,437,93313,1543,22380620,53,624255,-111,-4224351,6959,,
,,,,,,,,,,,,,,,
-59,966,5,-131,1505,603,93322,1543,22380660,53,624257,-111,-4224351,6958,,
,,,,,,,,,,,,,,,
-58,968,5,-105,1618,516,93308,1543,22380680,53,624257,-111,-4224351,6958,,
,,,,,,,,,,,,,,,
-57,966,4,-96,1470,472,93307,1544,22380700,53,624257,-111,-4224351,6958,,
,,,,,,,,,,,,,,,
-55,969,5,-52,1531,411,93307,1544,22380720,53,624257,-111,-4224352,6958,,
,,,,,,,,,,,,,,,
-59,964,6,-157,1566,481,93326,1545,22380760,53,624258,-111,-4224352,6958,,
,,,,,,,,,,,,,,,
-57,969,5,-166,1557,507,93322,1545,22380780,53,624258,-111,-4224353,6958,,
,,,,,,,,,,,,,,,
-59,965,4,-131,1505,490,93315,1546,22380800,53,624258,-111,-4224354,6957,,
,,,,,,,,,,,,,,,
-59,969,7,-148,1548,490,93309,1545,22380820,53,624258,-111,-4224354,6957,,
,,,,,,,,,,,,,,,
-57,968,5,-52,1583,490,93308,1547,22380860,53,624258,-111,-4224354,6957,,
,,,,,,,,,,,,,,,
-58,968,7,-280,1435,533,93312,1547,22380880,53,624259,-111,-4224356,6957,,
,,,,,,,,,,,,,,,
-58,972,5,-61,1505,490,93311,1546,22380900,53,624259,-111,-4224356,6956,,
,,,,,,,,,,,,,,,
-57,965,8,-35,1531,472,93313,1547,22380920,53,624259,-111,-4224356,6956,,
,,,,,,,,,,,,,,,
-55,969,4,-183,1470,533,93315,1548,22380960,53,624259,-111,-4224357,6956,,
,,,,,,,,,,,,,,,
-57,966,5,-78,1505,525,93309,1547,22380980,53,624259,-111,-4224357,6956,,
,,,,,,,,,,,,,,,
-55,966,5,-43,1505,516,93320,1548,22381000,53,624261,-111,-4224358,6956,,
,,,,,,,,,,,,,,,
-58,966,6,-148,1487,577,93311,1548,22381020,53,624261,-111,-4224358,6956,,
,,,,,,,,,,,,,,,
-57,967,4,8,1531,568,93313,1549,22381060,53,624261,-111,-4224358,6956,,
,,,,,,,,,,,,,,,
-57,970,5,-17,1592,542,93323,1550,22381080,53,624261,-111,-4224359,6955,,
,,,,,,,,,,,,,,,
-57,969,6,-70,1408,516,93318,1550,22381100,53,624261,-111,-4224359,6955,,
,,,,,,,,,,,,,,,
-59,966,6,-70,1435,568,93302,1550,22381120,53,624261,-111,-4224359,6955,,
,,,,,,,,,,,,,,,
-58,969,5,-52,1443,481,93311,1550,22381160,53,624261,-111,-4224360,6955,,
,,,,,,,,,,,,,,,
-57,969,8,-52,1505,516,93311,1550,22381180,53,624261,-111,-4224361,6955,,
,,,,,,,,,,,,,,,
-54,968,5,-140,1373,350,93322,1553,22381200,53,624261,-111,-4224363,6955,,
,,,,,,,,,,,,,,,
-57,966,6,-105,1496,507,93319,1553,22381220,53,624262,-111,-4224363,6955,,
,,,,,,,,,,,,,,,
-57,965,6,-227,1478,402,93306,1553,22381260,53,624262,-111,-4224364,6955,,
,,,,,,,,,,,,,,,
-55,970,4,-210,1487,595,93310,1553,22381280,53,624262,-111,-4224364,6955,,
,,,,,,,,,,,,,,,
-59,967,6,-140,1575,542,93303,1554,22381300,53,624264,-111,-4224365,6955,,
,,,,,,,,,,,,,,,
-57,967,5,-148,1592,525,93310,1555,22381320,53,624264,-111,-4224365,6955,,
,,,,,,,,,,,,,,,
-55,969,8,-35,1531,507,93312,1554,22381360,53,624264,-111,-4224366,6955,,
,,,,,,,,,,,,,,,
-56,968,5,-87,1522,516,93314,1555,22381380,53,624264,-111,-4224366,6955,,
,,,,,,,,,,,,,,,
-59,967,4,-227,1513,437,93302,1555,22381400,53,624264,-111,-4224366,6955,,
,,,,,,,,,,,,,,,
-58,969,5,-26,1373,516,93315,1555,22381420,53,624264,-111,-4224366,6954,,
,,,,,,,,,,,,,,,
-56,966,7,-113,1513,472,93320,1556,22381460,53,624264,-111,-4224367,6954,,
,,,,,,,,,,,,,,,
-58,967,5,-78,1461,516,93322,1557,22381480,53,624264,-111,-4224367,6954,,
,,,,,,,,,,,,,,,
-56,966,5,-183,1382,437,93305,1557,22381500,53,624264,-111,-4224368,6954,,
,,,,,,,,,,,,,,,
-58,966,6,-52,1443,498,93311,1555,22381520,53,624264,-111,-4224368,6954,,
,,,,,,,,,,,,,,,
-57,968,6,-332,1461,542,93312,1558,22381560,53,624264,-111,-4224370,6955,,
,,,,,,,,,,,,,,,
-56,967,7,-192,1522,507,93311,1557,22381580,53,624264,-111,-4224370,6954,,
,,,,,,,,,,,,,,,
-54,968,8,-148,1470,577,93317,1558,22381600,53,624264,-111,-4224370,6955,,
,,,,,,,,,,,,,,,
-57,967,8,-105,1540,437,93313,1559,22381620,53,624264,-111,-4224371,6955,,
,,,,,,,,,,,,,,,
-57,972,5,-131,1470,542,93313,1559,22381660,53,624264,-111,-4224372,6955,,
,,,,,,,,,,,,,,,
-57,967,5,-175,1566,481,93314,1559,22381680,53,624262,-111,-4224373,6955,,
,,,,,,,,,,,,,,,
-54,964,4,-227,1487,472,93318,1559,22381700,53,624262,-111,-4224373,6955,,
,,,,,,,,,,,,,,,
-55,969,7,-201,1592,568,93302,1559,22381720,53,624261,-111,-4224373,6955,,
,,,,,,,,,,,,,,,
-54,968,5,-192,1435,507,93312,1560,22381760,53,624261,-111,-4224374,6955,,
,,,,,,,,,,,,,,,
-57,965,5,-175,1531,525,93317,1560,22381780,53,624262,-111,-4224375,6955,,
,,,,,,,,,,,,,,,
-54,967,7,-105,1566,411,93317,1560,22381800,53,624261,-111,-4224375,6955,,
,,,,,,,,,,,,,,,
-58,969,5,-96,1443,586,93318,1561,22381820,53,624261,-111,-4224376,6956,,
,,,,,,,,,,,,,,,
-59,967,5,-218,1478,533,93309,1561,22381860,53,624261,-111,-4224376,6955,,
,,,,,,,,,,,,,,,
-55,965,5,-96,1513,463,93312,1562,22381880,53,624261,-111,-4224376,6956,,
,,,,,,,,,,,,,,,
-57,967,7,-78,1522,603,93307,1562,22381900,53,624261,-111,-4224379,6956,,
,,,,,,,,,,,,,,,
-56,966,6,-113,1662,463,93314,1563,22381920,53,624261,-111,-4224380,6956,,
,,,,,,,,,,,,,,,
-56,967,6,-210,1452,428,93323,1563,22381960,53,624261,-111,-4224381,6957,,
,,,,,,,,,,,,,,,
-55,966,8,17,1513,542,93310,1563,22381980,53,624261,-111,-4224381,6957,,
,,,,,,,,,,,,,,,
-57,968,6,-183,1575,498,93325,1564,22382000,53,624261,-111,-4224381,6957,,
,,,,,,,,,,,,,,,
-52,968,5,-157,1426,402,93324,1564,22382020,53,624261,-111,-4224382,6957,,
,,,,,,,,,,,,,,,
-52,970,5,-131,1505,490,93312,1564,22382060,53,624259,-111,-4224383,6957,,
,,,,,,,,,,,,,,,
-57,967,5,-140,1356,402,93321,1565,22382080,53,624259,-111,-4224385,6957,,
,,,,,,,,,,,,,,,
-56,971,8,-227,1408,490,93300,1565,22382100,53,624258,-111,-4224386,6958,,
,,,,,,,,,,,,,,,
-58,967,6,-210,1566,577,93313,1565,22382120,53,624258,-111,-4224386,6958,,
,,,,,,,,,,,,,,,
-57,970,5,-175,1443,472,93319,1566,22382160,53,624258,-111,-4224387,6958,,
,,,,,,,,,,,,,,,
-57,968,5,-122,1548,472,93318,1567,22382180,53,624257,-111,-4224387,6958,,
,,,,,,,,,,,,,,,
-57,964,5,-35,1435,490,93316,1566,22382200,53,624257,-111,-4224389,6958,,
,,,,,,,,,,,,,,,
-56,966,6,-210,1426,630,93322,1567,22382220,53,624257,-111,-4224390,6958,,
,,,,,,,,,,,,,,,
-54,966,7,-148,1487,498,93303,1566,22382260,53,624257,-111,-4224392,6958,,
,,,,,,,,,,,,,,,
-57,966,7,-78,1452,525,93306,1567,22382280,53,624257,-111,-4224392,6958,,
,,,,,,,,,,,,,,,
-60,965,4,-35,1601,568,93298,1568,22382300,53,624255,-111,-4224393,6959,,
,,,,,,,,,,,,,,,
-57,969,5,-70,1452,498,93321,1569,22382320,53,624254,-111,-4224393,6959,,
,,,,,,,,,,,,,,,
-57,965,4,-210,1470,472,93317,1569,22382360,53,624254,-111,-4224395,6959,,
,,,,,,,,,,,,,,,
-58,969,5,-166,1566,420,93306,1569,22382380,53,624254,-111,-4224395,6959,,
,,,,,,,,,,,,,,,
-58,970,6,-96,1417,455,93322,1569,22382400,53,624253,-111,-4224395,6959,,
,,,,,,,,,,,,,,,
-54,968,4,-245,1505,490,93322,1569,22382420,53,624253,-111,-4224395,6960,,
,,,,,,,,,,,,,,,
-55,969,5,-78,1671,507,93319,1570,22382460,53,624251,-111,-4224396,6960,,
,,,,,,,,,,,,,,,
-58,967,5,-148,1452,437,93313,1571,22382480,53,624251,-111,-4224396,6960,,
,,,,,,,,,,,,,,,
-57,964,5,-113,1671,551,93328,1570,22382500,53,624251,-111,-4224397,6960,,
,,,,,,,,,,,,,,,
-57,965,5,-218,1408,472,93317,1571,22382520,53,624251,-111,-4224397,6960,,
,,,,,,,,,,,,,,,
-56,967,4,-96,1505,411,93313,1571,22382560,53,624251,-111,-4224399,6961,,
,,,,,,,,,,,,,,,
-54,966,7,-87,1610,463,93315,1572,22382580,53,624250,-111,-4224399,6961,,
,,,,,,,,,,,,,,,
-58,967,6,-122,1496,428,93318,1573,22382600,53,624248,-111,-4224399,6961,,
,,,,,,,,,,,,,,,
-60,969,5,-148,1452,472,93312,1572,22382620,53,624248,-111,-4224400,6961,,
,,,,,,,,,,,,,,,
-58,965,5,-96,1688,446,93312,1572,22382660,53,624247,-111,-4224401,6962,,
,,,,,,,,,,,,,,,
-56,970,4,-148,1531,533,93306,1574,22382680,53,624247,-111,-4224402,6962,,
,,,,,,,,,,,,,,,
-55,968,4,-262,1487,507,93323,1574,22382700,53,624247,-111,-4224402,6962,,
,,,,,,,,,,,,,,,
-56,970,5,0,1601,533,93316,1575,22382720,53,624247,-111,-4224403,6963,,
,,,,,,,,,,,,,,,
-57,972,5,-131,1601,516,93316,1575,22382760,53,624246,-111,-4224402,6963,,
,,,,,,,,,,,,,,,
-57,965,5,-183,1680,498,93312,1575,22382780,53,624246,-111,-4224402,6963,,
,,,,,,,,,,,,,,,
-59,968,5,-140,1496,498,93316,1575,22382800,53,624246,-111,-4224402,6963,,
,,,,,,,,,,,,,,,
-55,966,5,-227,1575,516,93312,1575,22382820,53,624244,-111,-4224401,6963,,
,,,,,,,,,,,,,,,
-59,966,5,-140,1557,455,93327,1576,22382860,53,624244,-111,-4224401,6963,,
,,,,,,,,,,,,,,,
